ACCELEROMETER X (m/s²);ACCELEROMETER Y (m/s²);ACCELEROMETER Z (m/s²);GYROSCOPE X (rad/s);GYROSCOPE Y (rad/s);GYROSCOPE Z (rad/s);LIGHT ( lux);MAGNETIC FIELD X (μT);MAGNETIC FIELD Y (μT);MAGNETIC FIELD Z (μT);ORIENTATION X (°);ORIENTATION Y (°);ORIENTATION Z (°);SOUND LEVEL (dB);LOCATION Latitude : ;LOCATION Longitude : ;LOCATION Altitude ( m);LOCATION Speed ( m/s);LOCATION Accuracy ( m);Temperature ( °C);Level (%);Voltage (Volt);Time since start in ms ; 
-5.2211; 7.0153; 3.3511; -0.0608; -0.1748; -0.0213; 4.1432; 39.25; -27.56; -12.36; 321.99; -49.57; 59.54; 60.855; 59.937252; 10.532029; 241.9; 1.56375; 15.0; 23.0; 56.0; 3.706; 3; 
-5.1123; 6.9484; 3.7916; -0.0608; -0.1748; -0.0213; 4.1432; 38.95; -27.06; -15.41; 321.99; -49.57; 59.54; 57.03; 59.937252; 10.532029; 241.9; 1.56375; 15.0; 23.0; 56.0; 3.706; 115; 
-5.1123; 6.9484; 3.7916; -0.1215; -0.2547; 0.0203; 4.1432; 38.95; -27.06; -15.41; 321.99; -49.57; 59.54; 57.03; 59.937252; 10.532029; 241.9; 1.56375; 15.0; 23.0; 56.0; 3.706; 215; 
-5.0694; 6.9686; 4.0263; -0.1215; -0.2547; 0.0203; 4.1432; 38.95; -27.06; -15.41; 321.99; -49.57; 59.54; 57.03; 59.937252; 10.532029; 241.9; 1.56375; 15.0; 23.0; 56.0; 3.706; 315; 
-5.0694; 6.9686; 4.0263; 0.5265; 0.9646; 0.2068; 4.1432; 38.75; -27.96; -14.7; 312.81; -47.59; 52.84; 61.89; 59.937252; 10.532029; 241.9; 1.56375; 15.0; 23.0; 56.0; 3.706; 433; 
-5.2047; 7.2178; 3.979; 0.5265; 0.9646; 0.2068; 4.1432; 38.75; -27.96; -14.7; 312.81; -47.59; 52.84; 61.89; 59.937252; 10.532029; 241.9; 1.56375; 15.0; 23.0; 56.0; 3.706; 533; 
-5.2047; 7.2178; 3.979; -0.0352; 0.0501; 0.0469; 4.1432; 38.75; -27.96; -14.7; 312.81; -47.59; 52.84; 61.89; 59.937252; 10.532029; 241.9; 1.56375; 15.0; 23.0; 56.0; 3.706; 633; 
-4.9915; 7.2618; 3.0028; -0.0352; 0.0501; 0.0469; 6.3186; 38.95; -29.77; -9.21; 312.81; -47.59; 52.84; 61.89; 59.937252; 10.532029; 241.9; 1.56375; 15.0; 23.0; 56.0; 3.706; 739; 
-4.9915; 7.2618; 3.0028; -0.0554; -0.2686; -0.1151; 6.3186; 38.95; -29.77; -9.21; 312.81; -47.59; 52.84; 69.765; 59.937252; 10.532029; 241.9; 1.56375; 15.0; 23.0; 56.0; 3.706; 839; 
-5.2202; 7.2807; 3.0757; -0.0554; -0.2686; -0.1151; 6.3186; 38.85; -29.36; -11.55; 324.58; -51.5; 59.76; 69.765; 59.937252; 10.532029; 241.9; 1.56375; 15.0; 23.0; 56.0; 3.706; 959; 
-5.2202; 7.2807; 3.0757; -0.0085; 0.2089; 0.064; 17.9365; 38.85; -29.36; -11.55; 324.58; -51.5; 59.76; 69.765; 59.937252; 10.532029; 241.9; 1.56375; 15.0; 23.0; 56.0; 3.706; 1059; 
-4.9475; 7.6277; 3.6801; -0.0085; 0.2089; 0.064; 17.9365; 38.85; -29.36; -11.55; 324.58; -51.5; 59.76; 77.343; 59.937252; 10.532029; 241.9; 1.56375; 15.0; 23.0; 56.0; 3.706; 1159; 
-4.9475; 7.6277; 3.6801; -0.1982; 0.2697; 0.1258; 17.9365; 38.15; -30.37; -9.92; 324.58; -51.5; 59.76; 77.343; 59.937252; 10.532029; 241.9; 1.56375; 15.0; 23.0; 56.0; 3.706; 1260; 
-5.0286; 7.4064; 2.9605; -0.1982; 0.2697; 0.1258; 21.3849; 38.15; -30.37; -9.92; 324.58; -51.5; 59.76; 77.343; 59.937252; 10.532029; 241.9; 1.56375; 15.0; 23.0; 56.0; 3.706; 1360; 
-5.0286; 7.4064; 2.9605; -0.0458; 0.1897; 0.048; 21.3849; 38.15; -30.37; -9.92; 324.58; -51.5; 59.76; 74.435; 59.937252; 10.532029; 241.9; 1.56375; 15.0; 23.0; 56.0; 3.706; 1460; 
-5.1755; 7.352; 3.0809; -0.0458; 0.1897; 0.048; 21.3849; 38.35; -30.77; -7.89; 305.73; -51.96; 57.98; 74.435; 59.937252; 10.532029; 241.9; 1.56375; 15.0; 23.0; 56.0; 3.706; 1560; 
-5.1755; 7.352; 3.0809; -0.1226; -0.0032; -0.0469; 15.5827; 38.35; -30.77; -7.89; 305.73; -51.96; 57.98; 74.435; 59.937252; 10.532029; 241.9; 1.56375; 15.0; 23.0; 56.0; 3.706; 1663; 
-5.0933; 7.3306; 3.0478; -0.1226; -0.0032; -0.0469; 15.5827; 38.35; -30.77; -7.89; 305.73; -51.96; 57.98; 74.435; 59.937252; 10.532029; 241.9; 1.56375; 15.0; 23.0; 56.0; 3.706; 1772; 
-5.0933; 7.3306; 3.0478; 0.0256; 0.0; 0.0075; 15.9524; 38.25; -30.17; -8.5; 305.73; -51.96; 57.98; 70.035; 59.937252; 10.532029; 241.9; 1.56375; 15.0; 23.0; 56.0; 3.706; 1879; 
-5.247; 7.191; 3.0962; 0.0256; 0.0; 0.0075; 15.9524; 38.25; -30.17; -8.5; 305.73; -51.96; 57.98; 70.035; 59.937252; 10.532029; 241.9; 1.56375; 15.0; 23.0; 56.0; 3.706; 1979; 
-5.247; 7.191; 3.0962; 0.0938; 0.1279; 0.0512; 15.9524; 37.95; -30.77; -7.59; 304.23; -51.13; 58.25; 70.035; 59.937252; 10.532029; 241.9; 1.56375; 15.0; 23.0; 56.0; 3.706; 2085; 
-5.1691; 7.4894; 3.1141; 0.0938; 0.1279; 0.0512; 14.6956; 37.95; -30.77; -7.59; 304.23; -51.13; 58.25; 61.225; 59.937252; 10.532029; 241.9; 1.56375; 15.0; 23.0; 56.0; 3.706; 2194; 
-5.1691; 7.4894; 3.1141; 0.0394; 0.1066; 0.0586; 14.6956; 37.95; -30.77; -7.59; 304.23; -51.13; 58.25; 61.225; 59.937252; 10.532029; 241.9; 1.56375; 15.0; 23.0; 56.0; 3.706; 2294; 
-5.0653; 7.5111; 2.9243; 0.0394; 0.1066; 0.0586; 14.6956; 38.15; -31.27; -6.27; 304.23; -51.13; 58.25; 61.225; 59.937252; 10.532029; 241.9; 1.56375; 15.0; 23.0; 56.0; 3.706; 2394; 
-5.0653; 7.5111; 2.9243; -0.0277; 0.1684; -0.0245; 15.7665; 38.15; -31.27; -6.27; 304.23; -51.13; 58.25; 64.374; 59.937252; 10.532029; 241.9; 1.56375; 15.0; 23.0; 56.0; 3.706; 2511; 
-5.1411; 7.5596; 2.6345; -0.0277; 0.1684; -0.0245; 15.7665; 38.15; -31.27; -6.27; 304.23; -51.13; 58.25; 64.374; 59.937252; 10.532029; 241.9; 1.56375; 15.0; 23.0; 56.0; 3.706; 2611; 
-5.1411; 7.5596; 2.6345; -0.0224; 0.0053; -0.0533; 15.7665; 38.25; -31.47; -4.34; 298.61; -52.06; 60.01; 64.374; 59.937252; 10.532029; 241.9; 1.56375; 15.0; 23.0; 56.0; 3.706; 2711; 
-5.2069; 7.5021; 2.4127; -0.0224; 0.0053; -0.0533; 4.192; 38.25; -31.47; -4.34; 298.61; -52.06; 60.01; 64.374; 59.937252; 10.532029; 241.9; 1.56375; 15.0; 23.0; 56.0; 3.706; 2812; 
-5.2069; 7.5021; 2.4127; -0.0011; -0.0554; -0.0448; 4.192; 38.55; -30.57; -3.42; 298.61; -52.06; 60.01; 67.169; 59.937252; 10.532029; 241.9; 1.56375; 15.0; 23.0; 56.0; 3.706; 2923; 
-5.4467; 7.5734; 2.1187; -0.0011; -0.0554; -0.0448; 4.192; 38.55; -30.57; -3.42; 298.61; -52.06; 60.01; 67.169; 59.937252; 10.532029; 241.9; 1.56375; 15.0; 23.0; 56.0; 3.706; 3036; 
-5.4467; 7.5734; 2.1187; 0.0394; 0.0064; 0.1183; 4.192; 38.15; -31.77; -3.42; 304.34; -52.38; 65.6; 67.169; 59.937252; 10.532029; 241.9; 1.56375; 15.0; 23.0; 56.0; 3.706; 3139; 
-5.4533; 7.5042; 2.307; 0.0394; 0.0064; 0.1183; 4.192; 38.15; -31.77; -3.42; 304.34; -52.38; 65.6; 67.993; 59.937252; 10.532029; 241.9; 1.56375; 15.0; 23.0; 56.0; 3.706; 3271; 
-5.4533; 7.5042; 2.307; 0.1716; 0.1087; 0.1609; 4.192; 38.15; -31.77; -3.42; 304.34; -52.38; 65.6; 67.993; 59.937252; 10.532029; 241.9; 1.56375; 15.0; 23.0; 56.0; 3.706; 3393; 
-5.2885; 7.5811; 1.882; 0.1716; 0.1087; 0.1609; 4.192; 35.85; -33.87; -1.39; 304.34; -52.38; 65.6; 67.993; 59.937252; 10.532029; 241.9; 1.56375; 15.0; 23.0; 56.0; 3.706; 3506; 
-4.3637; 8.5432; 1.8187; 0.1993; 0.2217; 0.2697; 4.192; 35.85; -33.87; -1.39; 304.34; -52.38; 65.6; 66.755; 59.937252; 10.532029; 241.9; 1.56375; 15.0; 23.0; 56.0; 3.706; 3623; 
-4.3637; 8.5432; 1.8187; 0.1993; 0.2217; 0.2697; 4.192; 33.65; -36.87; 2.57; 289.73; -56.56; 69.42; 66.755; 59.937252; 10.532029; 241.9; 1.56375; 15.0; 23.0; 56.0; 3.706; 3723; 
-3.9895; 8.6751; 1.5201; 0.0032; 0.4914; 0.3134; 4.192; 33.65; -36.87; 2.57; 289.73; -56.56; 69.42; 66.755; 59.937252; 10.532029; 241.9; 1.56375; 15.0; 23.0; 56.0; 3.706; 3831; 
-3.9895; 8.6751; 1.5201; 0.0032; 0.4914; 0.3134; 4.192; 33.65; -36.87; 2.57; 289.73; -56.56; 69.42; 66.051; 59.937252; 10.532029; 241.9; 1.56375; 15.0; 23.0; 56.0; 3.706; 3931; 
-4.1923; 8.533; 1.4952; 0.0394; 0.728; -0.0149; 4.192; 32.65; -37.27; 4.91; 289.73; -56.56; 69.42; 66.051; 59.937252; 10.532029; 241.9; 1.56375; 15.0; 23.0; 56.0; 3.706; 4058; 
-4.1923; 8.533; 1.4952; -0.1396; 0.7791; -0.1236; 4.192; 32.65; -37.27; 4.91; 289.73; -56.56; 69.42; 66.051; 59.937252; 10.532029; 241.9; 1.56375; 15.0; 23.0; 56.0; 3.706; 4163; 
-4.1251; 7.7266; 1.4394; -0.1396; 0.7791; -0.1236; 4.192; 33.65; -36.17; 8.16; 301.53; -62.32; 74.34; 66.051; 59.937252; 10.532029; 241.9; 1.56375; 15.0; 23.0; 56.0; 3.706; 4263; 
-4.1251; 7.7266; 1.4394; -0.1396; 0.7791; -0.1236; 5.1165; 33.65; -36.17; 8.16; 301.53; -62.32; 74.34; 74.401; 59.937252; 10.532029; 241.9; 1.56375; 15.0; 23.0; 56.0; 3.706; 4363; 
-5.0466; 7.8763; 0.0516; 0.1172; 0.858; -0.1695; 5.1165; 33.65; -36.17; 8.16; 301.53; -62.32; 74.34; 74.401; 59.937252; 10.532029; 241.9; 1.56375; 15.0; 23.0; 56.0; 3.706; 4483; 
-5.0466; 7.8763; 0.0516; -0.1737; 0.4956; 0.0554; 5.8208; 32.35; -34.37; 16.79; 301.53; -62.32; 74.34; 74.401; 59.937252; 10.532029; 241.9; 1.56375; 15.0; 23.0; 56.0; 3.706; 4609; 
-5.9789; 9.0596; -1.9376; -0.1737; 0.4956; 0.0554; 5.8208; 32.35; -34.37; 16.79; 301.53; -62.32; 74.34; 67.345; 59.937252; 10.532029; 241.9; 1.56375; 15.0; 23.0; 56.0; 3.706; 4710; 
-5.9789; 9.0596; -1.9376; -0.4999; -0.1492; -0.3347; 5.8208; 30.55; -34.97; 18.42; 295.82; -55.79; 95.42; 67.345; 59.937252; 10.532029; 241.9; 1.56375; 15.0; 23.0; 56.0; 3.706; 4820; 
-6.7504; 6.4315; -1.9362; -0.4999; -0.1492; -0.3347; 4.769; 30.55; -34.97; 18.42; 295.82; -55.79; 95.42; 67.345; 59.937252; 10.532029; 241.9; 1.56375; 15.0; 23.0; 56.0; 3.706; 4920; 
-6.7504; 6.4315; -1.9362; -0.194; -0.1194; 0.1311; 4.769; 30.55; -34.97; 18.42; 295.82; -55.79; 95.42; 64.526; 59.937252; 10.532029; 241.9; 1.56375; 15.0; 23.0; 56.0; 3.706; 5020; 
-6.4781; 7.2689; -1.1013; -0.194; -0.1194; 0.1311; 4.6585; 31.45; -35.47; 16.29; 295.82; -55.79; 95.42; 64.526; 59.937252; 10.532029; 241.9; 1.56375; 15.0; 23.0; 56.0; 3.706; 5132; 
-6.4781; 7.2689; -1.1013; -0.1769; -0.1471; 0.1492; 4.6585; 31.45; -35.47; 16.29; 295.82; -55.79; 95.42; 64.526; 59.937252; 10.532029; 241.9; 1.56375; 15.0; 23.0; 56.0; 3.706; 5245; 
-6.1317; 7.4132; -0.5699; -0.1769; -0.1471; 0.1492; 4.6585; 31.45; -35.47; 16.29; 295.82; -55.79; 95.42; 60.924; 59.937252; 10.532029; 241.9; 1.56375; 15.0; 23.0; 56.0; 3.706; 5345; 
-6.1317; 7.4132; -0.5699; -0.8879; 0.1929; 0.1119; 4.4451; 29.95; -38.47; 12.22; 278.67; -53.42; 91.6; 60.924; 59.937252; 10.532029; 241.9; 1.56375; 15.0; 23.0; 56.0; 3.706; 5456; 
-5.7507; 7.6859; 1.2036; -0.8879; 0.1929; 0.1119; 4.4451; 29.95; -38.47; 12.22; 278.67; -53.42; 91.6; 60.924; 59.937252; 10.532029; 241.9; 1.56375; 15.0; 23.0; 56.0; 3.706; 5556; 
-5.7507; 7.6859; 1.2036; -0.3688; 0.4445; 0.34; 4.4451; 26.15; -41.98; 7.96; 278.67; -53.42; 91.6; 60.924; 59.937252; 10.532029; 241.9; 1.56375; 15.0; 23.0; 56.0; 3.706; 5663; 
-4.0941; 7.8284; 1.2245; -0.3688; 0.4445; 0.34; 4.4451; 26.15; -41.98; 7.96; 278.67; -53.42; 91.6; 58.393; 59.937252; 10.532029; 241.9; 1.56375; 15.0; 23.0; 56.0; 3.706; 5763; 
-4.0941; 7.8284; 1.2245; -0.0789; 0.8623; 0.2846; 4.4451; 26.15; -41.98; 7.96; 278.67; -53.42; 91.6; 58.393; 59.937252; 10.532029; 241.9; 1.56375; 15.0; 23.0; 56.0; 3.706; 5869; 
-3.9189; 9.0924; 1.02; -0.0789; 0.8623; 0.2846; 4.4451; 20.55; -44.88; 9.89; 234.0; -55.44; 75.98; 58.393; 59.937252; 10.532029; 241.9; 1.56375; 15.0; 23.0; 56.0; 3.706; 5970; 
-3.9189; 9.0924; 1.02; -0.3816; 0.3261; -0.0384; 4.4451; 20.55; -44.88; 9.89; 234.0; -55.44; 75.98; 55.579; 59.937252; 10.532029; 241.9; 1.56375; 15.0; 23.0; 56.0; 3.706; 6070; 
-3.0032; 8.9153; 1.1858; -0.3816; 0.3261; -0.0384; 4.4451; 20.55; -44.88; 9.89; 234.0; -55.44; 75.98; 55.579; 59.937252; 10.532029; 241.9; 1.56375; 15.0; 23.0; 56.0; 3.706; 6171; 
-3.0032; 8.9153; 1.1858; -0.6022; 0.7429; -0.0458; 4.4451; 19.95; -45.98; 8.16; 234.0; -55.44; 75.98; 55.579; 59.937252; 10.532029; 241.9; 1.56375; 15.0; 23.0; 56.0; 3.706; 6284; 
-3.7184; 9.3002; 0.4576; -0.6022; 0.7429; -0.0458; 4.4451; 19.95; -45.98; 8.16; 234.0; -55.44; 75.98; 55.579; 59.937252; 10.532029; 241.9; 1.56375; 15.0; 23.0; 56.0; 3.706; 6384; 
-3.7184; 9.3002; 0.4576; -0.2217; 0.551; -0.2835; 4.4451; 19.15; -46.28; 5.42; 229.7; -59.44; 70.13; 61.484; 59.937252; 10.532029; 241.9; 1.56375; 15.0; 23.0; 56.0; 3.706; 6519; 
-6.2567; 7.0017; 0.0861; -0.2217; 0.551; -0.2835; 4.4451; 19.15; -46.28; 5.42; 229.7; -59.44; 70.13; 61.484; 59.937252; 10.532029; 241.9; 1.56375; 15.0; 23.0; 56.0; 3.706; 6619; 
-6.2567; 7.0017; 0.0861; -0.1631; 0.6427; -0.2654; 4.4451; 19.15; -46.28; 5.42; 229.7; -59.44; 70.13; 61.484; 59.937252; 10.532029; 241.9; 1.56375; 15.0; 23.0; 56.0; 3.706; 6719; 
-7.1895; 6.0847; -0.2105; -0.1631; 0.6427; -0.2654; 4.4451; 22.05; -44.18; 7.04; 229.7; -59.44; 70.13; 68.088; 59.937252; 10.532029; 241.9; 1.56375; 15.0; 23.0; 56.0; 3.706; 6819; 
-7.1895; 6.0847; -0.2105; -0.162; 0.0757; 0.2174; 4.4451; 22.05; -44.18; 7.04; 229.7; -59.44; 70.13; 68.088; 59.937252; 10.532029; 241.9; 1.56375; 15.0; 23.0; 56.0; 3.706; 6919; 
-6.4502; 7.5983; -0.0458; -0.162; 0.0757; 0.2174; 4.4451; 22.05; -44.18; 7.04; 229.7; -59.44; 70.13; 68.088; 59.937252; 10.532029; 241.9; 1.56375; 15.0; 23.0; 56.0; 3.706; 7019; 
-6.4502; 7.5983; -0.0458; -0.1844; 0.3134; 0.2153; 4.4451; 19.15; -45.98; 6.53; 209.66; -49.7; 83.58; 68.088; 59.937252; 10.532029; 241.9; 1.56375; 15.0; 23.0; 56.0; 3.706; 7132; 
-5.2646; 7.8172; 0.3679; -0.1844; 0.3134; 0.2153; 4.4451; 19.15; -45.98; 6.53; 209.66; -49.7; 83.58; 52.315; 59.937252; 10.532029; 241.9; 1.56375; 15.0; 23.0; 56.0; 3.706; 7233; 
-5.2646; 7.8172; 0.3679; 0.0522; 0.2025; 0.114; 4.4451; 17.05; -47.18; 5.92; 209.66; -49.7; 83.58; 52.315; 59.937252; 10.532029; 241.9; 1.56375; 15.0; 23.0; 56.0; 3.706; 7361; 
-5.0912; 7.9103; 0.1099; 0.0522; 0.2025; 0.114; 4.4451; 17.05; -47.18; 5.92; 209.66; -49.7; 83.58; 52.315; 59.937252; 10.532029; 241.9; 1.56375; 15.0; 23.0; 56.0; 3.706; 7462; 
-5.0912; 7.9103; 0.1099; 0.4082; -0.4583; 0.0043; 4.4451; 17.05; -47.18; 5.92; 209.66; -49.7; 83.58; 49.588; 59.937252; 10.532029; 241.9; 1.56375; 15.0; 23.0; 56.0; 3.706; 7563; 
-5.1637; 8.436; -0.3399; 0.4082; -0.4583; 0.0043; 4.4451; 16.85; -46.58; 7.85; 215.14; -54.95; 83.97; 49.588; 59.937252; 10.532029; 241.9; 1.56375; 15.0; 23.0; 56.0; 3.706; 7663; 
-5.1637; 8.436; -0.3399; -0.1215; -0.469; -0.2068; 4.4451; 16.85; -46.58; 7.85; 215.14; -54.95; 83.97; 49.588; 59.937252; 10.532029; 241.9; 1.56375; 15.0; 23.0; 56.0; 3.706; 7778; 
-5.3394; 8.032; 0.1247; -0.1215; -0.469; -0.2068; 4.4451; 19.85; -45.38; 5.92; 215.14; -54.95; 83.97; 57.332; 59.937252; 10.532029; 241.9; 1.56375; 15.0; 23.0; 56.0; 3.706; 7902; 
-5.3394; 8.032; 0.1247; -0.0448; -0.5564; -0.34; 4.4451; 19.85; -45.38; 5.92; 215.14; -54.95; 83.97; 57.332; 59.937252; 10.532029; 241.9; 1.56375; 15.0; 23.0; 56.0; 3.706; 8002; 
-5.7635; 7.6031; 0.77; -0.0448; -0.5564; -0.34; 4.4451; 19.85; -45.38; 5.92; 215.14; -54.95; 83.97; 57.332; 59.937252; 10.532029; 241.9; 1.56375; 15.0; 23.0; 56.0; 3.706; 8102; 
-5.7635; 7.6031; 0.77; -0.1982; -0.3581; -0.1119; 4.4451; 23.95; -43.78; 2.77; 218.28; -50.74; 77.72; 53.911; 59.937252; 10.532029; 241.9; 1.56375; 15.0; 23.0; 56.0; 3.706; 8203; 
-5.2131; 7.0101; 1.6424; -0.1982; -0.3581; -0.1119; 4.4451; 23.95; -43.78; 2.77; 218.28; -50.74; 77.72; 53.911; 59.937252; 10.532029; 241.9; 1.56375; 15.0; 23.0; 56.0; 3.706; 8303; 
-5.2131; 7.0101; 1.6424; -0.2068; -0.145; 0.0565; 4.4451; 23.95; -43.78; 2.77; 218.28; -50.74; 77.72; 53.911; 59.937252; 10.532029; 241.9; 1.56375; 15.0; 23.0; 56.0; 3.706; 8404; 
-5.7865; 7.4334; 2.6811; -0.2068; -0.145; 0.0565; 4.4451; 22.95; -44.48; -0.98; 218.28; -50.74; 77.72; 53.911; 59.937252; 10.532029; 241.9; 1.56375; 15.0; 23.0; 56.0; 3.706; 8529; 
-5.7865; 7.4334; 2.6811; 0.5169; 0.5329; 0.1567; 4.4451; 22.95; -44.48; -0.98; 218.28; -50.74; 77.72; 52.097; 59.937252; 10.532029; 241.9; 1.56375; 15.0; 23.0; 56.0; 3.706; 8629; 
-5.2475; 7.0427; 1.1185; 0.5169; 0.5329; 0.1567; 4.4451; 21.05; -44.18; 9.38; 226.17; -50.54; 68.53; 52.097; 59.937252; 10.532029; 241.9; 1.56375; 15.0; 23.0; 56.0; 3.706; 8743; 
-5.2475; 7.0427; 1.1185; 0.7365; 0.4413; -0.0618; 4.4451; 21.05; -44.18; 9.38; 226.17; -50.54; 68.53; 52.097; 59.937252; 10.532029; 241.9; 1.56375; 15.0; 23.0; 56.0; 3.706; 8869; 
-6.0658; 9.0536; -1.402; 0.7365; 0.4413; -0.0618; 4.4451; 21.05; -44.18; 9.38; 226.17; -50.54; 68.53; 50.16; 59.937252; 10.532029; 241.9; 1.56375; 15.0; 23.0; 56.0; 3.706; 9000; 
-5.981; 7.6403; -1.3032; 0.0767; -0.4413; 0.0362; 4.4451; 19.75; -42.48; 14.97; 226.17; -50.54; 68.53; 50.16; 59.937252; 10.532029; 241.9; 1.56375; 15.0; 23.0; 56.0; 3.706; 9100; 
-5.981; 7.6403; -1.3032; 0.0767; -0.4413; 0.0362; 4.4451; 19.75; -42.48; 14.97; 226.17; -50.54; 68.53; 50.16; 59.937252; 10.532029; 241.9; 1.56375; 15.0; 23.0; 56.0; 3.706; 9200; 
-6.1766; 6.0269; -0.4154; -0.5084; 0.2729; 0.1641; 4.4451; 18.25; -45.28; 11.11; 212.8; -53.89; 102.98; 48.079; 59.937252; 10.532029; 241.9; 1.56375; 15.0; 23.0; 56.0; 3.706; 9313; 
-6.1766; 6.0269; -0.4154; -0.5084; 0.2729; 0.1641; 4.4451; 18.25; -45.28; 11.11; 212.8; -53.89; 102.98; 48.079; 59.937252; 10.532029; 241.9; 1.56375; 15.0; 23.0; 56.0; 3.706; 9413; 
-4.7839; 9.2594; -0.1443; 0.7418; -0.6694; -0.0085; 4.4451; 18.25; -45.28; 11.11; 212.8; -53.89; 102.98; 48.079; 59.937252; 10.532029; 241.9; 1.56375; 15.0; 23.0; 56.0; 3.706; 9513; 
-4.7839; 9.2594; -0.1443; 0.7418; -0.6694; -0.0085; 4.4451; 21.65; -44.78; 8.67; 212.8; -53.89; 102.98; 52.503; 59.937252; 10.532029; 241.9; 1.56375; 15.0; 23.0; 56.0; 3.706; 9613; 
-4.5896; 8.0336; 1.3773; -0.3933; -0.1812; 0.0533; 4.4451; 21.65; -44.78; 8.67; 212.8; -53.89; 102.98; 52.503; 59.937252; 10.532029; 241.9; 1.56375; 15.0; 23.0; 56.0; 3.706; 9734; 
-4.5896; 8.0336; 1.3773; -0.3933; -0.1812; 0.0533; 4.4451; 21.65; -44.78; 8.67; 212.8; -53.89; 102.98; 52.503; 59.937252; 10.532029; 241.9; 1.56375; 15.0; 23.0; 56.0; 3.706; 9835; 
-4.3103; 8.2484; 1.7828; -0.0373; -0.3038; 0.0352; 4.4451; 20.15; -45.78; 3.79; 214.5; -54.15; 77.96; 59.932; 59.937252; 10.532029; 241.9; 1.56375; 15.0; 23.0; 56.0; 3.706; 9936; 
-4.3103; 8.2484; 1.7828; -0.0373; -0.3038; 0.0352; 4.4451; 20.15; -45.78; 3.79; 214.5; -54.15; 77.96; 59.932; 59.937252; 10.532029; 241.9; 1.56375; 15.0; 23.0; 56.0; 3.706; 10037; 
-4.799; 8.2429; 1.2977; 0.5287; -0.7013; -0.0394; 4.4451; 20.75; -45.58; 4.4; 214.5; -54.15; 77.96; 59.932; 59.937252; 10.532029; 241.9; 1.56375; 15.0; 23.0; 56.0; 3.706; 10161; 
-4.799; 8.2429; 1.2977; 0.162; -0.2952; 0.0064; 4.4451; 20.75; -45.58; 4.4; 214.5; -54.15; 77.96; 59.932; 59.937252; 10.532029; 241.9; 1.56375; 15.0; 23.0; 56.0; 3.706; 10264; 
-4.8049; 7.8281; 1.5949; 0.162; -0.2952; 0.0064; 4.4451; 20.75; -45.58; 4.4; 214.5; -54.15; 77.96; 47.739; 59.937252; 10.532029; 241.9; 1.56375; 15.0; 23.0; 56.0; 3.706; 10364; 
-4.8049; 7.8281; 1.5949; 0.162; -0.2952; 0.0064; 4.4451; 21.25; -45.38; 4.71; 226.93; -55.63; 74.15; 47.739; 59.937252; 10.532029; 241.9; 1.56375; 15.0; 23.0; 56.0; 3.706; 10464; 
-5.1044; 7.7355; 1.5595; 0.0149; -0.0512; -0.1503; 4.4451; 21.25; -45.38; 4.71; 226.93; -55.63; 74.15; 47.739; 59.937252; 10.532029; 241.9; 1.56375; 15.0; 23.0; 56.0; 3.706; 10576; 
-5.1044; 7.7355; 1.5595; 0.0149; -0.0512; -0.1503; 4.4451; 22.65; -44.28; 5.62; 226.93; -55.63; 74.15; 63.979; 59.937252; 10.532029; 241.9; 1.56375; 15.0; 23.0; 56.0; 3.706; 10676; 
-5.6567; 7.707; 1.3086; 0.1514; -0.2132; -0.0949; 4.4451; 22.65; -44.28; 5.62; 226.93; -55.63; 74.15; 63.979; 59.937252; 10.532029; 241.9; 1.56375; 15.0; 23.0; 56.0; 3.706; 10776; 
-5.6567; 7.707; 1.3086; 0.1514; -0.2132; -0.0949; 4.4451; 22.65; -44.28; 5.62; 226.93; -55.63; 74.15; 63.979; 59.937252; 10.532029; 241.9; 1.56375; 15.0; 23.0; 56.0; 3.706; 10876; 
-5.4051; 7.7233; 0.9603; 0.1631; 0.1833; -0.0139; 4.4451; 23.95; -43.48; 7.04; 239.81; -54.61; 76.65; 63.979; 59.937252; 10.532029; 241.9; 1.56375; 15.0; 23.0; 56.0; 3.706; 10984; 
-5.4051; 7.7233; 0.9603; 0.1631; 0.1833; -0.0139; 4.4451; 23.95; -43.48; 7.04; 239.81; -54.61; 76.65; 61.372; 59.937252; 10.532029; 241.9; 1.56375; 15.0; 23.0; 56.0; 3.706; 11084; 
-5.1747; 7.9938; 0.4241; 0.21; 0.0341; -0.0266; 4.4451; 24.35; -42.28; 9.68; 239.81; -54.61; 76.65; 61.372; 59.937252; 10.532029; 241.9; 1.56375; 15.0; 23.0; 56.0; 3.706; 11213; 
-5.1747; 7.9938; 0.4241; 0.0842; 0.0863; -0.1204; 4.4451; 24.35; -42.28; 9.68; 239.81; -54.61; 76.65; 61.372; 59.937252; 10.532029; 241.9; 1.56375; 15.0; 23.0; 56.0; 3.706; 11343; 
-6.0763; 7.6531; -0.1031; 0.0842; 0.0863; -0.1204; 4.4451; 24.35; -42.28; 9.68; 239.81; -54.61; 76.65; 48.308; 59.937252; 10.532029; 241.9; 1.56375; 15.0; 23.0; 56.0; 3.706; 11443; 
-6.0763; 7.6531; -0.1031; 0.016; -0.0703; -0.1215; 4.4451; 25.75; -41.07; 12.02; 252.26; -53.58; 82.06; 48.308; 59.937252; 10.532029; 241.9; 1.56375; 15.0; 23.0; 56.0; 3.706; 11545; 
-6.258; 7.4671; -0.4227; 0.016; -0.0703; -0.1215; 4.4451; 25.75; -41.07; 12.02; 252.26; -53.58; 82.06; 48.308; 59.937252; 10.532029; 241.9; 1.56375; 15.0; 23.0; 56.0; 3.706; 11646; 
-6.258; 7.4671; -0.4227; 0.0011; -0.2867; -0.0554; 4.4451; 27.45; -40.07; 11.51; 252.26; -53.58; 82.06; 48.407; 59.937252; 10.532029; 241.9; 1.56375; 15.0; 23.0; 56.0; 3.706; 11769; 
-6.0099; 7.2205; 0.2135; 0.0011; -0.2867; -0.0554; 4.4451; 27.45; -40.07; 11.51; 252.26; -53.58; 82.06; 48.407; 59.937252; 10.532029; 241.9; 1.56375; 15.0; 23.0; 56.0; 3.706; 11870; 
-6.0099; 7.2205; 0.2135; -0.2121; 0.0021; 0.1194; 4.4451; 27.45; -40.07; 11.51; 252.26; -53.58; 82.06; 48.407; 59.937252; 10.532029; 241.9; 1.56375; 15.0; 23.0; 56.0; 3.706; 11970; 
-6.4384; 6.8116; 0.6519; -0.2121; 0.0021; 0.1194; 4.4451; 26.75; -40.87; 9.58; 242.32; -50.09; 86.44; 48.407; 59.937252; 10.532029; 241.9; 1.56375; 15.0; 23.0; 56.0; 3.706; 12070; 
-6.4384; 6.8116; 0.6519; -0.1524; 0.0021; 0.1865; 4.4451; 26.75; -40.87; 9.58; 242.32; -50.09; 86.44; 58.378; 59.937252; 10.532029; 241.9; 1.56375; 15.0; 23.0; 56.0; 3.706; 12172; 
-5.9099; 7.4481; 0.7697; -0.1524; 0.0021; 0.1865; 4.4451; 26.75; -40.87; 9.58; 242.32; -50.09; 86.44; 58.378; 59.937252; 10.532029; 241.9; 1.56375; 15.0; 23.0; 56.0; 3.706; 12272; 
-5.9099; 7.4481; 0.7697; -0.5766; 0.4871; 0.1162; 4.4451; 24.35; -42.98; 7.75; 242.32; -50.09; 86.44; 58.378; 59.937252; 10.532029; 241.9; 1.56375; 15.0; 23.0; 56.0; 3.706; 12391; 
-5.5395; 7.9745; 1.2842; -0.5766; 0.4871; 0.1162; 4.4451; 24.35; -42.98; 7.75; 242.32; -50.09; 86.44; 50.936; 59.937252; 10.532029; 241.9; 1.56375; 15.0; 23.0; 56.0; 3.706; 12492; 
-5.5395; 7.9745; 1.2842; 0.0117; 0.0394; 0.3091; 4.4451; 21.05; -44.38; 5.92; 220.24; -53.12; 82.11; 50.936; 59.937252; 10.532029; 241.9; 1.56375; 15.0; 23.0; 56.0; 3.706; 12607; 
-5.6407; 7.6322; 1.2959; 0.0117; 0.0394; 0.3091; 4.4451; 21.05; -44.38; 5.92; 220.24; -53.12; 82.11; 50.936; 59.937252; 10.532029; 241.9; 1.56375; 15.0; 23.0; 56.0; 3.706; 12707; 
-5.6407; 7.6322; 1.2959; -0.0298; -0.2153; 0.1119; 4.4451; 21.05; -44.38; 5.92; 220.24; -53.12; 82.11; 48.563; 59.937252; 10.532029; 241.9; 1.56375; 15.0; 23.0; 56.0; 3.706; 12814; 
-4.7062; 8.048; 1.2412; -0.0298; -0.2153; 0.1119; 4.4451; 18.25; -45.38; 4.5; 220.24; -53.12; 82.11; 48.563; 59.937252; 10.532029; 241.9; 1.56375; 15.0; 23.0; 56.0; 3.706; 12915; 
-4.7062; 8.048; 1.2412; -0.048; -0.2388; -0.048; 4.4451; 18.25; -45.38; 4.5; 220.24; -53.12; 82.11; 48.563; 59.937252; 10.532029; 241.9; 1.56375; 15.0; 23.0; 56.0; 3.706; 13015; 
-4.379; 8.6086; 1.4927; -0.048; -0.2388; -0.048; 4.4451; 18.25; -45.38; 4.5; 220.24; -53.12; 82.11; 48.563; 59.937252; 10.532029; 241.9; 1.56375; 15.0; 23.0; 56.0; 3.706; 13115; 
-4.379; 8.6086; 1.4927; -0.0032; -0.1535; -0.1194; 4.4451; 18.95; -45.28; 2.67; 218.61; -57.92; 77.8; 47.51; 59.937252; 10.532029; 241.9; 1.56375; 15.0; 23.0; 56.0; 3.706; 13245; 
-4.6652; 7.7859; 2.1224; -0.0032; -0.1535; -0.1194; 4.4451; 18.95; -45.28; 2.67; 218.61; -57.92; 77.8; 47.51; 59.937252; 10.532029; 241.9; 1.56375; 15.0; 23.0; 56.0; 3.706; 13345; 
-4.6652; 7.7859; 2.1224; 0.1727; 0.3794; 0.1247; 4.4451; 20.15; -45.68; 3.08; 218.61; -57.92; 77.8; 47.51; 59.937252; 10.532029; 241.9; 1.56375; 15.0; 23.0; 56.0; 3.706; 13452; 
-5.2455; 7.6266; 2.172; 0.1727; 0.3794; 0.1247; 4.4451; 20.15; -45.68; 3.08; 218.61; -57.92; 77.8; 49.917; 59.937252; 10.532029; 241.9; 1.56375; 15.0; 23.0; 56.0; 3.706; 13553; 
-5.2455; 7.6266; 2.172; 0.3603; -0.0906; -0.2377; 4.4451; 20.15; -45.68; 3.08; 218.61; -57.92; 77.8; 49.917; 59.937252; 10.532029; 241.9; 1.56375; 15.0; 23.0; 56.0; 3.706; 13668; 
-5.1105; 7.7194; 1.2252; 0.3603; -0.0906; -0.2377; 4.4451; 21.15; -45.28; 7.96; 239.05; -58.63; 73.26; 49.917; 59.937252; 10.532029; 241.9; 1.56375; 15.0; 23.0; 56.0; 3.706; 13768; 
-5.1105; 7.7194; 1.2252; 0.7866; -0.048; 0.2633; 4.4451; 21.15; -45.28; 7.96; 239.05; -58.63; 73.26; 66.02; 59.937252; 10.532029; 241.9; 1.56375; 15.0; 23.0; 56.0; 3.706; 13869; 
-4.8709; 7.9847; 0.0724; 0.7866; -0.048; 0.2633; 4.4451; 21.15; -45.28; 7.96; 239.05; -58.63; 73.26; 66.02; 59.937252; 10.532029; 241.9; 1.56375; 15.0; 23.0; 56.0; 3.706; 13983; 
-4.8709; 7.9847; 0.0724; -0.016; 0.4541; 0.2867; 4.4451; 18.35; -44.58; 14.46; 239.05; -58.63; 73.26; 66.02; 59.937252; 10.532029; 241.9; 1.56375; 15.0; 23.0; 56.0; 3.706; 14099; 
-3.878; 8.6833; 0.1666; -0.016; 0.4541; 0.2867; 4.4451; 18.35; -44.58; 14.46; 239.05; -58.63; 73.26; 49.696; 59.937252; 10.532029; 241.9; 1.56375; 15.0; 23.0; 56.0; 3.706; 14222; 
-2.7306; 9.3527; -0.5541; -0.2846; 1.2886; 0.0053; 4.4451; 15.35; -45.68; 16.79; 240.6; -60.13; 93.25; 49.696; 59.937252; 10.532029; 241.9; 1.56375; 15.0; 23.0; 56.0; 3.706; 14360; 
-2.7306; 9.3527; -0.5541; -0.2846; 1.2886; 0.0053; 4.4451; 15.35; -45.68; 16.79; 240.6; -60.13; 93.25; 49.696; 59.937252; 10.532029; 241.9; 1.56375; 15.0; 23.0; 56.0; 3.706; 14479; 
-3.1429; 7.0244; -0.2392; 0.3016; 1.2236; -0.2707; 4.4451; 11.05; -44.18; 21.57; 240.6; -60.13; 93.25; 61.653; 59.937252; 10.532029; 241.9; 1.56375; 15.0; 23.0; 56.0; 3.706; 14583; 
-3.1429; 7.0244; -0.2392; 1.4762; -0.1268; -1.2907; 4.4451; 11.05; -44.18; 21.57; 240.6; -60.13; 93.25; 61.653; 59.937252; 10.532029; 241.9; 1.56375; 15.0; 23.0; 56.0; 3.706; 14694; 
-6.9973; 9.9342; -6.0926; 1.4762; -0.1268; -1.2907; 4.4451; 16.65; -33.37; 33.86; 289.11; -63.43; 108.48; 61.653; 59.937252; 10.532029; 241.9; 1.56375; 15.0; 23.0; 56.0; 3.706; 14799; 
-6.9973; 9.9342; -6.0926; 0.4082; 0.2942; -0.2334; 4.4451; 16.65; -33.37; 33.86; 289.11; -63.43; 108.48; 61.653; 59.937252; 10.532029; 241.9; 1.56375; 15.0; 23.0; 56.0; 3.706; 14910; 
-6.263; 5.2707; -5.2842; 0.4082; 0.2942; -0.2334; 4.4451; 16.65; -33.37; 33.86; 289.11; -63.43; 108.48; 63.548; 59.937252; 10.532029; 241.9; 1.56375; 15.0; 23.0; 56.0; 3.706; 15010; 
-6.263; 5.2707; -5.2842; 0.1055; 0.0309; -0.0373; 4.4451; 17.85; -29.26; 37.32; 289.11; -63.43; 108.48; 63.548; 59.937252; 10.532029; 241.9; 1.56375; 15.0; 23.0; 56.0; 3.706; 15125; 
-6.438; 5.2348; -5.5865; 0.1055; 0.0309; -0.0373; 4.4451; 17.85; -29.26; 37.32; 289.11; -63.43; 108.48; 63.548; 59.937252; 10.532029; 241.9; 1.56375; 15.0; 23.0; 56.0; 3.706; 15226; 
-6.438; 5.2348; -5.5865; -1.2343; 0.5127; 0.0767; 4.4451; 12.55; -34.67; 35.08; 250.1; -39.2; 133.92; 53.006; 59.937252; 10.532029; 241.9; 1.56375; 15.0; 23.0; 56.0; 3.706; 15363; 
-6.1751; 7.7094; -6.9438; -1.2343; 0.5127; 0.0767; 4.4451; 12.55; -34.67; 35.08; 250.1; -39.2; 133.92; 53.006; 59.937252; 10.532029; 241.9; 1.56375; 15.0; 23.0; 56.0; 3.706; 15463; 
-6.1751; 7.7094; -6.9438; -1.1874; 0.3198; -0.5617; 4.4451; 12.55; -34.67; 35.08; 250.1; -39.2; 133.92; 53.006; 59.937252; 10.532029; 241.9; 1.56375; 15.0; 23.0; 56.0; 3.706; 15563; 
-1.9638; 9.4448; -4.724; -1.1874; 0.3198; -0.5617; 4.4451; 12.65; -46.08; 18.32; 250.1; -39.2; 133.92; 57.807; 59.937252; 10.532029; 241.9; 1.56375; 15.0; 23.0; 56.0; 3.706; 15664; 
-1.9638; 9.4448; -4.724; -1.0818; 0.7919; -0.372; 4.4451; 12.65; -46.08; 18.32; 250.1; -39.2; 133.92; 57.807; 59.937252; 10.532029; 241.9; 1.56375; 15.0; 23.0; 56.0; 3.706; 15782; 
-4.0392; 5.0324; 1.0135; -1.0818; 0.7919; -0.372; 4.4451; 13.45; -47.58; 9.78; 200.97; -55.81; 108.24; 57.807; 59.937252; 10.532029; 241.9; 1.56375; 15.0; 23.0; 56.0; 3.706; 15899; 
-4.0392; 5.0324; 1.0135; 0.9721; 1.3781; -0.1801; 4.4451; 13.45; -47.58; 9.78; 200.97; -55.81; 108.24; 71.248; 59.937252; 10.532029; 241.9; 1.56375; 15.0; 23.0; 56.0; 3.706; 16000; 
-3.9284; 9.2162; -0.9212; 0.9721; 1.3781; -0.1801; 4.4451; 13.45; -47.58; 9.78; 200.97; -55.81; 108.24; 71.248; 59.937252; 10.532029; 241.9; 1.56375; 15.0; 23.0; 56.0; 3.706; 16100; 
-3.9284; 9.2162; -0.9212; 0.5127; 0.7823; 0.1716; 4.4451; 11.95; -40.97; 27.77; 200.97; -55.81; 108.24; 71.248; 59.937252; 10.532029; 241.9; 1.56375; 15.0; 23.0; 56.0; 3.706; 16200; 
-6.3718; 6.2419; -7.5714; 0.5127; 0.7823; 0.1716; 4.4451; 11.95; -40.97; 27.77; 200.97; -55.81; 108.24; 71.248; 59.937252; 10.532029; 241.9; 1.56375; 15.0; 23.0; 56.0; 3.706; 16301; 
-6.3718; 6.2419; -7.5714; 0.1151; -0.0991; -0.5308; 4.4451; 11.95; -40.97; 27.77; 200.97; -55.81; 108.24; 57.549; 59.937252; 10.532029; 241.9; 1.56375; 15.0; 23.0; 56.0; 3.706; 16401; 
-6.6695; 6.6176; -7.4537; 0.1151; -0.0991; -0.5308; 4.4451; 14.65; -34.97; 33.35; 271.39; -49.52; 122.83; 57.549; 59.937252; 10.532029; 241.9; 1.56375; 15.0; 23.0; 56.0; 3.706; 16501; 
-6.6695; 6.6176; -7.4537; -0.7184; 0.2025; 0.2388; 4.4451; 14.65; -34.97; 33.35; 271.39; -49.52; 122.83; 57.549; 59.937252; 10.532029; 241.9; 1.56375; 15.0; 23.0; 56.0; 3.706; 16601; 
-6.0202; 4.0751; -6.0801; -0.7184; 0.2025; 0.2388; 4.4451; 14.65; -34.97; 33.35; 271.39; -49.52; 122.83; 57.603; 59.937252; 10.532029; 241.9; 1.56375; 15.0; 23.0; 56.0; 3.706; 16703; 
-6.0202; 4.0751; -6.0801; -2.2969; -0.9625; 0.1919; 4.4451; 16.55; -41.38; 24.01; 271.39; -49.52; 122.83; 57.603; 59.937252; 10.532029; 241.9; 1.56375; 15.0; 23.0; 56.0; 3.706; 16803; 
-4.4669; 5.6692; -3.4095; -2.2969; -0.9625; 0.1919; 4.4451; 16.55; -41.38; 24.01; 271.39; -49.52; 122.83; 57.603; 59.937252; 10.532029; 241.9; 1.56375; 15.0; 23.0; 56.0; 3.706; 16903; 
-4.4669; 5.6692; -3.4095; -0.2633; 0.2388; -0.0448; 4.192; 15.85; -47.18; 6.94; 188.98; -51.25; 105.34; 57.603; 59.937252; 10.532029; 241.9; 1.56375; 15.0; 23.0; 56.0; 3.706; 17023; 
-3.9671; 4.8134; 0.3637; -0.2633; 0.2388; -0.0448; 4.192; 15.85; -47.18; 6.94; 188.98; -51.25; 105.34; 57.37; 59.937252; 10.532029; 241.9; 1.56375; 15.0; 23.0; 56.0; 3.706; 17123; 
-3.9671; 4.8134; 0.3637; 1.684; 1.2044; 0.2089; 4.3933; 15.85; -47.18; 6.94; 188.98; -51.25; 105.34; 57.37; 59.937252; 10.532029; 241.9; 1.56375; 15.0; 23.0; 56.0; 3.706; 17237; 
-5.5431; 7.6578; -7.0957; 1.684; 1.2044; 0.2089; 4.3933; 10.45; -40.87; 28.07; 188.98; -51.25; 105.34; 57.37; 59.937252; 10.532029; 241.9; 1.56375; 15.0; 23.0; 56.0; 3.706; 17337; 
-5.5431; 7.6578; -7.0957; 0.8548; 0.6832; 0.1705; 4.3933; 10.45; -40.87; 28.07; 188.98; -51.25; 105.34; 71.142; 59.937252; 10.532029; 241.9; 1.56375; 15.0; 23.0; 56.0; 3.706; 17440; 
-5.5903; 8.1013; -7.1668; 0.8548; 0.6832; 0.1705; 4.3933; 10.45; -40.87; 28.07; 188.98; -51.25; 105.34; 71.142; 59.937252; 10.532029; 241.9; 1.56375; 15.0; 23.0; 56.0; 3.706; 17540; 
-5.5903; 8.1013; -7.1668; 0.2302; 0.1108; 0.1045; 4.3933; 5.05; -35.87; 36.3; 250.32; -41.02; 142.56; 71.142; 59.937252; 10.532029; 241.9; 1.56375; 15.0; 23.0; 56.0; 3.706; 17646; 
-4.1937; 6.5631; -9.2856; 0.2302; 0.1108; 0.1045; 4.3933; 5.05; -35.87; 36.3; 250.32; -41.02; 142.56; 62.991; 59.937252; 10.532029; 241.9; 1.56375; 15.0; 23.0; 56.0; 3.706; 17746; 
-4.1937; 6.5631; -9.2856; -1.1447; -0.2494; 0.0565; 4.3933; 5.25; -40.87; 29.9; 250.32; -41.02; 142.56; 62.991; 59.937252; 10.532029; 241.9; 1.56375; 15.0; 23.0; 56.0; 3.706; 17870; 
-3.9717; 6.1163; -8.9699; -1.1447; -0.2494; 0.0565; 4.3933; 5.25; -40.87; 29.9; 250.32; -41.02; 142.56; 62.991; 59.937252; 10.532029; 241.9; 1.56375; 15.0; 23.0; 56.0; 3.706; 17971; 
-3.9717; 6.1163; -8.9699; -0.8942; -0.663; -0.2622; 4.3933; 5.25; -40.87; 29.9; 250.32; -41.02; 142.56; 62.991; 59.937252; 10.532029; 241.9; 1.56375; 15.0; 23.0; 56.0; 3.706; 18071; 
-4.4914; 6.8441; -4.0109; -0.8942; -0.663; -0.2622; 4.3933; 13.35; -47.48; 12.32; 167.44; -38.54; 152.1; 66.75; 59.937252; 10.532029; 241.9; 1.56375; 15.0; 23.0; 56.0; 3.706; 18171; 
-4.4914; 6.8441; -4.0109; -0.1865; 0.081; -0.1812; 4.192; 13.35; -47.48; 12.32; 167.44; -38.54; 152.1; 66.75; 59.937252; 10.532029; 241.9; 1.56375; 15.0; 23.0; 56.0; 3.706; 18299; 
-3.4836; 4.0923; 0.3751; -0.1865; 0.081; -0.1812; 4.192; 14.05; -45.98; 14.05; 167.44; -38.54; 152.1; 66.75; 59.937252; 10.532029; 241.9; 1.56375; 15.0; 23.0; 56.0; 3.706; 18421; 
-3.4836; 4.0923; 0.3751; 1.683; 1.5625; 0.1641; 4.192; 14.05; -45.98; 14.05; 167.44; -38.54; 152.1; 71.605; 59.937252; 10.532029; 241.9; 1.56375; 15.0; 23.0; 56.0; 3.706; 18521; 
-4.5264; 6.5529; -6.3752; 1.683; 1.5625; 0.1641; 4.1432; 14.05; -45.98; 14.05; 167.44; -38.54; 152.1; 71.605; 59.937252; 10.532029; 241.9; 1.56375; 15.0; 23.0; 56.0; 3.706; 18621; 
-4.5264; 6.5529; -6.3752; 2.0283; 1.7778; 0.6726; 4.1432; 3.45; -35.87; 35.18; 229.77; -34.81; 153.58; 71.605; 59.937252; 10.532029; 241.9; 1.56375; 15.0; 23.0; 56.0; 3.706; 18721; 
-6.3471; 8.709; -10.667; 2.0283; 1.7778; 0.6726; 4.1432; 3.45; -35.87; 35.18; 229.77; -34.81; 153.58; 72.767; 59.937252; 10.532029; 241.9; 1.56375; 15.0; 23.0; 56.0; 3.706; 18821; 
-6.3471; 8.709; -10.667; -0.7226; -0.4903; -0.1194; 4.1432; 3.45; -35.87; 35.18; 229.77; -34.81; 153.58; 72.767; 59.937252; 10.532029; 241.9; 1.56375; 15.0; 23.0; 56.0; 3.706; 18921; 
-3.8687; 5.5421; -8.7201; -0.7226; -0.4903; -0.1194; 4.1432; 6.65; -38.77; 31.83; 229.77; -34.81; 153.58; 72.767; 59.937252; 10.532029; 241.9; 1.56375; 15.0; 23.0; 56.0; 3.706; 19022; 
-3.8687; 5.5421; -8.7201; -2.4461; -1.2524; -0.2537; 4.1432; 6.65; -38.77; 31.83; 229.77; -34.81; 153.58; 72.767; 59.937252; 10.532029; 241.9; 1.56375; 15.0; 23.0; 56.0; 3.706; 19130; 
-3.4758; 4.9617; -5.0164; -2.4461; -1.2524; -0.2537; 4.3421; 6.65; -38.77; 31.83; 229.77; -34.81; 153.58; 70.489; 59.937252; 10.532029; 241.9; 1.56375; 15.0; 23.0; 56.0; 3.706; 19230; 
-3.4758; 4.9617; -5.0164; -0.793; -0.1034; -0.1108; 4.3421; 13.35; -47.38; 10.7; 169.7; -40.06; 145.99; 70.489; 59.937252; 10.532029; 241.9; 1.56375; 15.0; 23.0; 56.0; 3.706; 19335; 
-3.847; 7.1795; -0.8514; -0.793; -0.1034; -0.1108; 4.3421; 13.35; -47.38; 10.7; 169.7; -40.06; 145.99; 70.489; 59.937252; 10.532029; 241.9; 1.56375; 15.0; 23.0; 56.0; 3.706; 19435; 
-3.847; 7.1795; -0.8514; -0.049; 0.3251; -0.1855; 4.0949; 15.35; -47.78; 2.17; 169.7; -40.06; 145.99; 65.986; 59.937252; 10.532029; 241.9; 1.56375; 15.0; 23.0; 56.0; 3.706; 19558; 
-3.937; 5.9911; 0.4075; -0.049; 0.3251; -0.1855; 4.0949; 15.35; -47.78; 2.17; 169.7; -40.06; 145.99; 65.986; 59.937252; 10.532029; 241.9; 1.56375; 15.0; 23.0; 56.0; 3.706; 19667; 
-3.937; 5.9911; 0.4075; 1.1842; 0.9923; 0.259; 4.0949; 14.05; -46.28; 11.92; 211.87; -53.65; 101.91; 65.986; 59.937252; 10.532029; 241.9; 1.56375; 15.0; 23.0; 56.0; 3.706; 19807; 
-5.0601; 8.4469; -5.8177; 1.1842; 0.9923; 0.259; 4.0949; 14.05; -46.28; 11.92; 211.87; -53.65; 101.91; 71.726; 59.937252; 10.532029; 241.9; 1.56375; 15.0; 23.0; 56.0; 3.706; 19938; 
-7.3062; 7.8988; -6.0316; 0.2675; 0.4061; 0.0021; 4.0949; 9.35; -41.88; 26.85; 211.87; -53.65; 101.91; 71.726; 59.937252; 10.532029; 241.9; 1.56375; 15.0; 23.0; 56.0; 3.706; 20042; 
-7.3062; 7.8988; -6.0316; 0.2675; 0.4061; 0.0021; 4.0949; 9.35; -41.88; 26.85; 211.87; -53.65; 101.91; 71.726; 59.937252; 10.532029; 241.9; 1.56375; 15.0; 23.0; 56.0; 3.706; 20142; 
-4.4321; 6.4564; -6.4345; -0.114; -0.4519; 0.0671; 4.0949; 9.35; -41.88; 26.85; 211.87; -53.65; 101.91; 64.162; 59.937252; 10.532029; 241.9; 1.56375; 15.0; 23.0; 56.0; 3.706; 20243; 
-4.4321; 6.4564; -6.4345; -0.114; -0.4519; 0.0671; 4.3933; 9.95; -45.98; 20.35; 204.09; -47.19; 135.16; 64.162; 59.937252; 10.532029; 241.9; 1.56375; 15.0; 23.0; 56.0; 3.706; 20343; 
-3.2801; 7.2538; -4.9409; -0.421; 0.0725; -0.2729; 4.3933; 9.95; -45.98; 20.35; 204.09; -47.19; 135.16; 64.162; 59.937252; 10.532029; 241.9; 1.56375; 15.0; 23.0; 56.0; 3.706; 20466; 
-3.2801; 7.2538; -4.9409; -0.421; 0.0725; -0.2729; 4.3933; 9.95; -45.98; 20.35; 204.09; -47.19; 135.16; 61.1; 59.937252; 10.532029; 241.9; 1.56375; 15.0; 23.0; 56.0; 3.706; 20566; 
-4.489; 8.4158; -1.9602; -0.6576; -0.3944; -0.0757; 4.3933; 13.35; -48.88; 4.5; 204.09; -47.19; 135.16; 61.1; 59.937252; 10.532029; 241.9; 1.56375; 15.0; 23.0; 56.0; 3.706; 20666; 
-4.489; 8.4158; -1.9602; -0.6576; -0.3944; -0.0757; 6.1721; 13.35; -48.88; 4.5; 204.09; -47.19; 135.16; 61.1; 59.937252; 10.532029; 241.9; 1.56375; 15.0; 23.0; 56.0; 3.706; 20786; 
-4.577; 7.82; 0.4551; -0.8932; -0.114; -0.2483; 6.1721; 14.55; -48.08; -2.71; 159.09; -55.29; 101.9; 61.1; 59.93729; 10.531857; 245.5; 2.9398499; 10.0; 23.0; 56.0; 3.706; 20899; 
-4.577; 7.82; 0.4551; 0.1471; 0.2835; -0.1364; 5.6196; 14.55; -48.08; -2.71; 159.09; -55.29; 101.9; 59.688; 59.93729; 10.531857; 245.5; 2.9398499; 10.0; 23.0; 56.0; 3.706; 21012; 
-3.056; 6.1227; 1.1945; 0.1471; 0.2835; -0.1364; 5.6196; 18.25; -46.68; -4.64; 159.09; -55.29; 101.9; 59.688; 59.93729; 10.531857; 245.5; 2.9398499; 10.0; 23.0; 56.0; 3.706; 21112; 
-3.056; 6.1227; 1.1945; 1.6233; 0.761; 0.1407; 5.6196; 18.25; -46.68; -4.64; 159.09; -55.29; 101.9; 59.688; 59.93729; 10.531857; 245.5; 2.9398499; 10.0; 23.0; 56.0; 3.706; 21228; 
-4.6462; 8.4165; -2.0641; 1.6233; 0.761; 0.1407; 7.5333; 18.25; -46.68; -4.64; 159.09; -55.29; 101.9; 67.293; 59.93729; 10.531857; 245.5; 2.9398499; 10.0; 23.0; 56.0; 3.706; 21329; 
-4.6462; 8.4165; -2.0641; 1.1532; 0.6875; 0.0437; 7.5333; 15.25; -43.38; 19.03; 235.93; -53.8; 96.8; 67.293; 59.93729; 10.531857; 245.5; 2.9398499; 10.0; 23.0; 56.0; 3.706; 21429; 
-6.9665; 8.8466; -7.0282; 1.1532; 0.6875; 0.0437; 4.2915; 15.25; -43.38; 19.03; 235.93; -53.8; 96.8; 67.293; 59.93729; 10.531857; 245.5; 2.9398499; 10.0; 23.0; 56.0; 3.706; 21532; 
-6.9665; 8.8466; -7.0282; -0.2761; -0.2835; -0.0608; 4.2915; 13.35; -40.37; 27.26; 235.93; -53.8; 96.8; 62.321; 59.93729; 10.531857; 245.5; 2.9398499; 10.0; 23.0; 56.0; 3.706; 21649; 
-6.7969; 5.13; -6.746; -0.2761; -0.2835; -0.0608; 4.2915; 13.35; -40.37; 27.26; 235.93; -53.8; 96.8; 62.321; 59.93729; 10.531857; 245.5; 2.9398499; 10.0; 23.0; 56.0; 3.706; 21752; 
-6.7969; 5.13; -6.746; -1.5039; -0.2963; 0.1919; 4.192; 13.35; -40.37; 27.26; 235.93; -53.8; 96.8; 62.321; 59.93729; 10.531857; 245.5; 2.9398499; 10.0; 23.0; 56.0; 3.706; 21866; 
-4.3371; 3.214; -2.9879; -1.5039; -0.2963; 0.1919; 4.192; 20.65; -43.28; 17.71; 155.62; -40.25; 145.35; 62.321; 59.93729; 10.531857; 245.5; 2.9398499; 10.0; 23.0; 56.0; 3.706; 21966; 
-4.3371; 3.214; -2.9879; -0.3549; 0.1322; 0.3059; 5.6859; 20.65; -43.28; 17.71; 155.62; -40.25; 145.35; 56.612; 59.93729; 10.531857; 245.5; 2.9398499; 10.0; 23.0; 56.0; 3.706; 22075; 
-10.305; 7.2265; -3.1158; -0.3549; 0.1322; 0.3059; 5.6859; 20.65; -43.28; 17.71; 155.62; -40.25; 145.35; 56.612; 59.93729; 10.531857; 245.5; 2.9398499; 10.0; 23.0; 56.0; 3.706; 22175; 
-10.305; 7.2265; -3.1158; -1.101; 0.0746; -0.1663; 5.6859; 14.15; -48.98; 6.43; 155.62; -40.25; 145.35; 56.612; 59.93729; 10.531857; 245.5; 2.9398499; 10.0; 23.0; 56.0; 3.706; 22276; 
-5.0216; 7.4332; -3.0472; -1.101; 0.0746; -0.1663; 5.6859; 14.15; -48.98; 6.43; 155.62; -40.25; 145.35; 57.158; 59.93729; 10.531857; 245.5; 2.9398499; 10.0; 23.0; 56.0; 3.706; 22376; 
-5.0216; 7.4332; -3.0472; -0.1354; -0.1418; 0.3198; 9.3031; 13.55; -48.58; -0.17; 170.49; -52.91; 102.91; 57.158; 59.93729; 10.531857; 245.5; 2.9398499; 10.0; 23.0; 56.0; 3.706; 22494; 
-4.1422; 6.0601; -0.835; -0.1354; -0.1418; 0.3198; 9.3031; 13.55; -48.58; -0.17; 170.49; -52.91; 102.91; 57.158; 59.93729; 10.531857; 245.5; 2.9398499; 10.0; 23.0; 56.0; 3.706; 22594; 
-4.1422; 6.0601; -0.835; 0.0661; 0.1279; 0.194; 10.7084; 13.55; -48.58; -0.17; 170.49; -52.91; 102.91; 53.938; 59.93729; 10.531857; 245.5; 2.9398499; 10.0; 23.0; 56.0; 3.706; 22703; 
-4.0964; 8.4745; -1.1676; 0.0661; 0.1279; 0.194; 10.7084; 9.35; -49.98; 0.44; 170.49; -52.91; 102.91; 53.938; 59.93729; 10.531857; 245.5; 2.9398499; 10.0; 23.0; 56.0; 3.706; 22804; 
-4.0964; 8.4745; -1.1676; 0.0288; 0.032; -0.0373; 10.7084; 9.35; -49.98; 0.44; 170.49; -52.91; 102.91; 53.938; 59.93729; 10.531857; 245.5; 2.9398499; 10.0; 23.0; 56.0; 3.706; 22905; 
-2.3; 6.4872; -0.9966; 0.0288; 0.032; -0.0373; 8.5702; 9.35; -49.98; 0.44; 170.49; -52.91; 102.91; 53.938; 59.93729; 10.531857; 245.5; 2.9398499; 10.0; 23.0; 56.0; 3.706; 23005; 
-2.3; 6.4872; -0.9966; 1.2748; 0.1567; -0.0256; 8.5702; 8.95; -48.98; 8.67; 202.75; -59.73; 104.99; 69.208; 59.93729; 10.531857; 245.5; 2.9398499; 10.0; 23.0; 56.0; 3.706; 23120; 
-3.0842; 8.9014; -4.0911; 1.2748; 0.1567; -0.0256; 8.5702; 8.95; -48.98; 8.67; 202.75; -59.73; 104.99; 69.208; 59.93729; 10.531857; 245.5; 2.9398499; 10.0; 23.0; 56.0; 3.706; 23220; 
-3.0842; 8.9014; -4.0911; 0.0693; 0.9433; -0.3102; 8.5702; 9.35; -44.08; 23.7; 202.75; -59.73; 104.99; 69.208; 59.93729; 10.531857; 245.5; 2.9398499; 10.0; 23.0; 56.0; 3.706; 23347; 
-3.9653; 9.1198; -5.3548; 0.0693; 0.9433; -0.3102; 8.5702; 9.35; -44.08; 23.7; 202.75; -59.73; 104.99; 60.641; 59.93729; 10.531857; 245.5; 2.9398499; 10.0; 23.0; 56.0; 3.706; 23448; 
-3.9653; 9.1198; -5.3548; -1.2566; 0.0671; -0.7056; 8.5702; 9.35; -44.08; 23.7; 202.75; -59.73; 104.99; 60.641; 59.93729; 10.531857; 245.5; 2.9398499; 10.0; 23.0; 56.0; 3.706; 23552; 
-5.4285; 10.9491; -4.4432; -1.2566; 0.0671; -0.7056; 8.5702; 15.05; -44.38; 18.72; 177.84; -48.51; 142.69; 60.641; 59.93729; 10.531857; 245.5; 2.9398499; 10.0; 23.0; 56.0; 3.706; 23652; 
-5.4285; 10.9491; -4.4432; -0.8378; -0.7024; -0.1982; 8.5702; 15.05; -44.38; 18.72; 177.84; -48.51; 142.69; 60.641; 59.93729; 10.531857; 245.5; 2.9398499; 10.0; 23.0; 56.0; 3.706; 23755; 
-5.6123; 6.9848; -7.8325; -0.8378; -0.7024; -0.1982; 8.5702; 15.05; -44.38; 18.72; 177.84; -48.51; 142.69; 58.672; 59.93728; 10.53165; 245.5; 4.31595; 10.0; 23.0; 56.0; 3.706; 23859; 
-5.6123; 6.9848; -7.8325; -0.8537; -1.0989; -0.4072; 8.5702; 19.25; -45.18; 10.6; 177.84; -48.51; 142.69; 58.672; 59.93728; 10.53165; 245.5; 4.31595; 10.0; 23.0; 56.0; 3.706; 23959; 
-5.3104; 5.3502; -2.2218; -0.8537; -1.0989; -0.4072; 8.5702; 19.25; -45.18; 10.6; 177.84; -48.51; 142.69; 58.672; 59.93728; 10.53165; 245.5; 4.31595; 10.0; 23.0; 56.0; 3.706; 24059; 
-5.3104; 5.3502; -2.2218; -0.0714; 1.1458; 0.6011; 8.5702; 21.35; -45.08; 1.66; 170.86; -47.53; 101.98; 56.678; 59.93728; 10.53165; 245.5; 4.31595; 10.0; 23.0; 56.0; 3.706; 24195; 
-0.2733; 2.9477; 0.0451; -0.0714; 1.1458; 0.6011; 8.5702; 21.35; -45.08; 1.66; 170.86; -47.53; 101.98; 56.678; 59.93728; 10.53165; 245.5; 4.31595; 10.0; 23.0; 56.0; 3.706; 24295; 
-0.2733; 2.9477; 0.0451; 2.2649; 0.1705; -0.1428; 8.5702; 21.35; -45.08; 1.66; 170.86; -47.53; 101.98; 56.678; 59.93728; 10.53165; 245.5; 4.31595; 10.0; 23.0; 56.0; 3.706; 24396; 
-5.7657; 10.3634; -8.9744; 2.2649; 0.1705; -0.1428; 8.5702; 13.25; -42.88; 21.77; 170.86; -47.53; 101.98; 72.196; 59.93728; 10.53165; 245.5; 4.31595; 10.0; 23.0; 56.0; 3.706; 24496; 
-5.7657; 10.3634; -8.9744; -0.1482; -0.2281; 0.0544; 8.5702; 13.25; -42.88; 21.77; 170.86; -47.53; 101.98; 72.196; 59.93728; 10.53165; 245.5; 4.31595; 10.0; 23.0; 56.0; 3.706; 24597; 
-5.8458; 7.2554; -5.8316; -0.1482; -0.2281; 0.0544; 8.5702; 13.25; -42.88; 21.77; 170.86; -47.53; 101.98; 72.196; 59.93728; 10.53165; 245.5; 4.31595; 10.0; 23.0; 56.0; 3.706; 24698; 
-5.8458; 7.2554; -5.8316; 0.1332; -1.2577; 0.2046; 8.5702; 14.25; -44.28; 19.03; 178.4; -44.17; 144.64; 72.196; 59.93728; 10.53165; 245.5; 4.31595; 10.0; 23.0; 56.0; 3.706; 24821; 
-4.8345; 5.1276; -4.2482; 0.1332; -1.2577; 0.2046; 8.5702; 14.25; -44.28; 19.03; 178.4; -44.17; 144.64; 54.961; 59.93728; 10.53165; 245.5; 4.31595; 10.0; 23.0; 56.0; 3.706; 24921; 
-4.8345; 5.1276; -4.2482; -0.2281; -0.5159; 0.599; 8.5702; 11.75; -47.08; 12.93; 178.4; -44.17; 144.64; 54.961; 59.93728; 10.53165; 245.5; 4.31595; 10.0; 23.0; 56.0; 3.706; 25050; 
-8.7143; 8.8897; -2.4399; -0.2281; -0.5159; 0.599; 8.5702; 11.75; -47.08; 12.93; 178.4; -44.17; 144.64; 54.961; 59.93728; 10.53165; 245.5; 4.31595; 10.0; 23.0; 56.0; 3.706; 25156; 
-8.7143; 8.8897; -2.4399; -0.9699; 0.2942; -0.1759; 8.5702; 11.75; -47.08; 12.93; 178.4; -44.17; 144.64; 59.436; 59.93728; 10.53165; 245.5; 4.31595; 10.0; 23.0; 56.0; 3.706; 25258; 
-3.5752; 8.7117; -3.0523; -0.9699; 0.2942; -0.1759; 8.5702; 8.25; -49.58; -0.48; 172.02; -42.36; 124.73; 59.436; 59.93728; 10.53165; 245.5; 4.31595; 10.0; 23.0; 56.0; 3.706; 25379; 
-3.634; 6.758; 0.6459; -0.9124; -0.0629; -0.3571; 4.192; 8.25; -49.58; -0.48; 172.02; -42.36; 124.73; 59.436; 59.93728; 10.53165; 245.5; 4.31595; 10.0; 23.0; 56.0; 3.706; 25512; 
-3.634; 6.758; 0.6459; -0.9124; -0.0629; -0.3571; 4.192; 12.35; -47.48; -9.82; 172.02; -42.36; 124.73; 51.801; 59.93728; 10.53165; 245.5; 4.31595; 10.0; 23.0; 56.0; 3.706; 25612; 
-2.3416; 3.2869; 1.4716; 0.7877; 0.647; -0.2675; 4.192; 12.35; -47.48; -9.82; 172.02; -42.36; 124.73; 51.801; 59.93728; 10.53165; 245.5; 4.31595; 10.0; 23.0; 56.0; 3.706; 25716; 
-2.3416; 3.2869; 1.4716; 0.7877; 0.647; -0.2675; 4.192; 12.35; -47.48; -9.82; 172.02; -42.36; 124.73; 51.801; 59.93728; 10.53165; 245.5; 4.31595; 10.0; 23.0; 56.0; 3.706; 25817; 
-9.5675; 11.9474; -10.9863; 2.1946; 0.5628; -0.1812; 4.1432; 15.65; -44.58; 14.76; 211.0; -49.59; 111.11; 69.858; 59.93728; 10.53165; 245.5; 4.31595; 10.0; 23.0; 56.0; 3.706; 25921; 
-9.5675; 11.9474; -10.9863; 2.1946; 0.5628; -0.1812; 4.1432; 15.65; -44.58; 14.76; 211.0; -49.59; 111.11; 69.858; 59.93728; 10.53165; 245.5; 4.31595; 10.0; 23.0; 56.0; 3.706; 26022; 
-5.5421; 11.1487; -7.1738; 0.4157; 0.7546; 0.3922; 4.1432; 12.25; -43.08; 23.4; 211.0; -49.59; 111.11; 69.858; 59.93728; 10.53165; 245.5; 4.31595; 10.0; 23.0; 56.0; 3.706; 26149; 
-5.5421; 11.1487; -7.1738; 0.534; -0.3453; -0.1002; 4.1432; 12.25; -43.08; 23.4; 211.0; -49.59; 111.11; 66.949; 59.93728; 10.53165; 245.5; 4.31595; 10.0; 23.0; 56.0; 3.706; 26256; 
-5.1855; 5.4678; -7.8434; 0.534; -0.3453; -0.1002; 4.1432; 12.25; -43.08; 23.4; 211.0; -49.59; 111.11; 66.949; 59.93728; 10.53165; 245.5; 4.31595; 10.0; 23.0; 56.0; 3.706; 26356; 
-5.1855; 5.4678; -7.8434; 0.534; -0.3453; -0.1002; 4.1432; 17.05; -44.08; 17.3; 173.98; -43.21; 138.94; 66.949; 59.93728; 10.53165; 245.5; 4.31595; 10.0; 23.0; 56.0; 3.706; 26456; 
-5.9334; 4.4886; -4.0307; -0.3262; -0.7322; 0.2686; 4.1432; 17.05; -44.08; 17.3; 173.98; -43.21; 138.94; 66.949; 59.93728; 10.53165; 245.5; 4.31595; 10.0; 23.0; 56.0; 3.706; 26563; 
-5.9334; 4.4886; -4.0307; -0.3262; -0.7322; 0.2686; 4.1432; 17.05; -44.08; 17.3; 173.98; -43.21; 138.94; 56.632; 59.93728; 10.53165; 245.5; 4.31595; 10.0; 23.0; 56.0; 3.706; 26663; 
-5.1676; 4.876; -3.0084; 0.0576; -0.2057; 0.227; 4.1432; 16.75; -44.98; 12.63; 173.98; -43.21; 138.94; 56.632; 59.93728; 10.53165; 245.5; 4.31595; 10.0; 23.0; 56.0; 3.706; 26770; 
-5.1676; 4.876; -3.0084; 0.0576; -0.2057; 0.227; 4.1432; 16.75; -44.98; 12.63; 173.98; -43.21; 138.94; 56.632; 59.937214; 10.531474; 245.3; 3.81555; 10.0; 23.0; 56.0; 3.706; 26870; 
-9.4025; 8.6355; -2.5715; -0.1236; -0.4231; 0.4391; 4.1432; 13.05; -46.98; 11.0; 186.62; -43.43; 121.39; 57.356; 59.937214; 10.531474; 245.3; 3.81555; 10.0; 23.0; 56.0; 3.706; 26992; 
-9.4025; 8.6355; -2.5715; -0.6011; -0.0064; -0.049; 4.1432; 13.05; -46.98; 11.0; 186.62; -43.43; 121.39; 57.356; 59.937214; 10.531474; 245.3; 3.81555; 10.0; 23.0; 56.0; 3.706; 27101; 
-5.1364; 9.7705; -3.5849; -0.6011; -0.0064; -0.049; 4.1432; 13.05; -46.98; 11.0; 186.62; -43.43; 121.39; 57.356; 59.937214; 10.531474; 245.3; 3.81555; 10.0; 23.0; 56.0; 3.706; 27202; 
-5.1364; 9.7705; -3.5849; -1.3046; -0.2121; -0.3699; 4.192; 12.95; -48.18; 3.18; 186.62; -43.43; 121.39; 53.55; 59.937214; 10.531474; 245.3; 3.81555; 10.0; 23.0; 56.0; 3.706; 27334; 
-2.9481; 6.6953; -0.4322; -1.3046; -0.2121; -0.3699; 4.192; 12.95; -48.18; 3.18; 186.62; -43.43; 121.39; 53.55; 59.937214; 10.531474; 245.3; 3.81555; 10.0; 23.0; 56.0; 3.706; 27434; 
-2.9481; 6.6953; -0.4322; 0.5287; 0.9753; -0.048; 4.192; 17.45; -46.18; -3.42; 170.16; -46.97; 91.0; 53.55; 59.937214; 10.531474; 245.3; 3.81555; 10.0; 23.0; 56.0; 3.706; 27551; 
-1.9747; 1.7952; 0.2319; 0.5287; 0.9753; -0.048; 4.2915; 17.45; -46.18; -3.42; 170.16; -46.97; 91.0; 69.52; 59.937214; 10.531474; 245.3; 3.81555; 10.0; 23.0; 56.0; 3.706; 27651; 
-1.9747; 1.7952; 0.2319; 2.6124; 1.8311; 0.2046; 4.2915; 17.45; -46.18; -3.42; 170.16; -46.97; 91.0; 69.52; 59.937214; 10.531474; 245.3; 3.81555; 10.0; 23.0; 56.0; 3.706; 27751; 
-4.6842; 10.7146; -4.1341; 2.6124; 1.8311; 0.2046; 4.2915; 11.65; -42.78; 22.08; 170.16; -46.97; 91.0; 69.52; 59.937214; 10.531474; 245.3; 3.81555; 10.0; 23.0; 56.0; 3.706; 27851; 
-4.6842; 10.7146; -4.1341; -1.0797; 0.9571; -0.5542; 4.2915; 11.65; -42.78; 22.08; 170.16; -46.97; 91.0; 69.52; 59.937214; 10.531474; 245.3; 3.81555; 10.0; 23.0; 56.0; 3.706; 27969; 
-4.896; 5.5449; -6.6975; -1.0797; 0.9571; -0.5542; 4.2915; 11.65; -42.78; 22.08; 170.16; -46.97; 91.0; 66.103; 59.937214; 10.531474; 245.3; 3.81555; 10.0; 23.0; 56.0; 3.706; 28069; 
-4.896; 5.5449; -6.6975; -0.5596; -1.0776; -0.2377; 4.2915; 14.15; -43.88; 20.05; 187.43; -40.9; 139.69; 66.103; 59.937214; 10.531474; 245.3; 3.81555; 10.0; 23.0; 56.0; 3.706; 28169; 
-5.1511; 4.6157; -4.945; -0.5596; -1.0776; -0.2377; 4.2915; 14.15; -43.88; 20.05; 187.43; -40.9; 139.69; 66.103; 59.937214; 10.531474; 245.3; 3.81555; 10.0; 23.0; 56.0; 3.706; 28270; 
-5.1511; 4.6157; -4.945; -0.1663; -1.0893; 0.1087; 4.2915; 19.45; -44.98; 8.46; 187.43; -40.9; 139.69; 56.653; 59.937214; 10.531474; 245.3; 3.81555; 10.0; 23.0; 56.0; 3.706; 28387; 
-6.1759; 5.0893; -2.192; -0.1663; -1.0893; 0.1087; 4.2915; 19.45; -44.98; 8.46; 187.43; -40.9; 139.69; 56.653; 59.937214; 10.531474; 245.3; 3.81555; 10.0; 23.0; 56.0; 3.706; 28487; 
-6.1759; 5.0893; -2.192; 0.0384; 0.0448; 0.5809; 4.192; 19.45; -44.98; 8.46; 187.43; -40.9; 139.69; 56.653; 59.937214; 10.531474; 245.3; 3.81555; 10.0; 23.0; 56.0; 3.706; 28599; 
-4.8478; 4.3145; -1.9377; 0.0384; 0.0448; 0.5809; 4.192; 14.75; -47.28; 8.06; 178.82; -43.16; 119.65; 54.292; 59.937214; 10.531474; 245.3; 3.81555; 10.0; 23.0; 56.0; 3.706; 28699; 
-4.8478; 4.3145; -1.9377; -0.5404; -0.3965; 0.3986; 4.192; 14.75; -47.28; 8.06; 178.82; -43.16; 119.65; 54.292; 59.937214; 10.531474; 245.3; 3.81555; 10.0; 23.0; 56.0; 3.706; 28840; 
-6.6638; 11.2008; -3.59; -0.5404; -0.3965; 0.3986; 4.8252; 12.35; -48.68; 0.64; 178.82; -43.16; 119.65; 54.292; 59.937214; 10.531474; 245.3; 3.81555; 10.0; 23.0; 56.0; 3.706; 28940; 
-6.6638; 11.2008; -3.59; -0.7791; -0.1482; -0.4317; 4.8252; 12.35; -48.68; 0.64; 178.82; -43.16; 119.65; 54.292; 59.937214; 10.531474; 245.3; 3.81555; 10.0; 23.0; 56.0; 3.706; 29041; 
-3.7172; 6.7089; -0.6935; -0.7791; -0.1482; -0.4317; 6.779; 12.35; -48.68; 0.64; 178.82; -43.16; 119.65; 53.436; 59.937214; 10.531474; 245.3; 3.81555; 10.0; 23.0; 56.0; 3.706; 29141; 
-3.7172; 6.7089; -0.6935; -0.2761; 0.437; -0.0671; 6.779; 17.75; -45.48; -9.01; 151.45; -49.8; 87.35; 53.436; 59.937214; 10.531474; 245.3; 3.81555; 10.0; 23.0; 56.0; 3.706; 29241; 
-3.6978; 6.3169; 1.6632; -0.2761; 0.437; -0.0671; 6.779; 17.75; -45.48; -9.01; 151.45; -49.8; 87.35; 53.436; 59.937214; 10.531474; 245.3; 3.81555; 10.0; 23.0; 56.0; 3.706; 29341; 
-3.6978; 6.3169; 1.6632; 2.5591; 1.4741; 0.3624; 6.3186; 17.75; -45.48; -9.01; 151.45; -49.8; 87.35; 68.185; 59.937214; 10.531474; 245.3; 3.81555; 10.0; 23.0; 56.0; 3.706; 29441; 
-3.4198; 6.909; -3.465; 2.5591; 1.4741; 0.3624; 6.3186; 14.85; -44.28; 15.27; 151.45; -49.8; 87.35; 68.185; 59.937214; 10.531474; 245.3; 3.81555; 10.0; 23.0; 56.0; 3.706; 29542; 
-3.4198; 6.909; -3.465; 1.2087; 0.4796; 0.0373; 6.3186; 14.85; -44.28; 15.27; 151.45; -49.8; 87.35; 68.185; 59.937214; 10.531474; 245.3; 3.81555; 10.0; 23.0; 56.0; 3.706; 29658; 
-6.9225; 17.46; -7.3283; 1.2087; 0.4796; 0.0373; 4.4451; 14.15; -43.78; 19.33; 186.97; -43.31; 138.9; 68.185; 59.937214; 10.531474; 245.3; 3.81555; 10.0; 23.0; 56.0; 3.706; 29761; 
-6.9225; 17.46; -7.3283; 0.3219; 0.3379; -0.3251; 4.4451; 14.15; -43.78; 19.33; 186.97; -43.31; 138.9; 66.126; 59.937214; 10.531474; 245.3; 3.81555; 10.0; 23.0; 56.0; 3.706; 29861; 
-4.5442; 4.7016; -9.0795; 0.3219; 0.3379; -0.3251; 4.4451; 14.15; -43.78; 19.33; 186.97; -43.31; 138.9; 66.126; 59.937214; 10.531474; 245.3; 3.81555; 10.0; 23.0; 56.0; 3.706; 29962; 
-4.5442; 4.7016; -9.0795; -0.7365; -1.7277; 0.1279; 4.4975; 18.65; -44.28; 11.11; 186.97; -43.31; 138.9; 66.126; 59.937214; 10.531474; 245.3; 3.81555; 10.0; 23.0; 56.0; 3.706; 30084; 
-5.2625; 3.7581; -3.2655; -0.7365; -1.7277; 0.1279; 4.4975; 18.65; -44.28; 11.11; 186.97; -43.31; 138.9; 58.081; 59.937214; 10.531474; 245.3; 3.81555; 10.0; 23.0; 56.0; 3.706; 30184; 
-5.2625; 3.7581; -3.2655; 0.47; -0.8484; 0.4572; 5.1165; 18.65; -44.28; 11.11; 186.97; -43.31; 138.9; 58.081; 59.937214; 10.531474; 245.3; 3.81555; 10.0; 23.0; 56.0; 3.706; 30284; 
-5.5978; 5.7013; -2.0329; 0.47; -0.8484; 0.4572; 5.1165; 17.25; -45.98; 6.94; 165.95; -45.09; 128.13; 58.081; 59.937214; 10.531474; 245.3; 3.81555; 10.0; 23.0; 56.0; 3.706; 30384; 
-5.5978; 5.7013; -2.0329; 0.2867; 0.1119; 0.5436; 5.1165; 17.25; -45.98; 6.94; 165.95; -45.09; 128.13; 58.081; 59.937214; 10.531474; 245.3; 3.81555; 10.0; 23.0; 56.0; 3.706; 30513; 
-8.2953; 7.5397; -0.998; 0.2867; 0.1119; 0.5436; 5.3622; 11.75; -47.58; 7.96; 165.95; -45.09; 128.13; 54.718; 59.937214; 10.531474; 245.3; 3.81555; 10.0; 23.0; 56.0; 3.706; 30634; 
-8.2953; 7.5397; -0.998; -0.4988; 0.2984; 0.0778; 5.3622; 11.75; -47.58; 7.96; 165.95; -45.09; 128.13; 54.718; 59.937214; 10.531474; 245.3; 3.81555; 10.0; 23.0; 56.0; 3.706; 30754; 
-5.0752; 10.2679; -2.8562; -0.4988; 0.2984; 0.0778; 6.779; 12.55; -48.18; 1.35; 170.36; -48.77; 111.26; 54.718; 59.93718; 10.531236; 245.5; 3.5028; 15.0; 23.0; 56.0; 3.706; 30879; 
-5.0752; 10.2679; -2.8562; -1.02; 0.1492; -0.5926; 6.779; 12.55; -48.18; 1.35; 170.36; -48.77; 111.26; 57.022; 59.93718; 10.531236; 245.5; 3.5028; 15.0; 23.0; 56.0; 3.706; 30990; 
-2.8749; 5.1201; -0.1754; 0.6534; 1.0605; 0.5745; 11.2225; 16.15; -46.38; -4.34; 170.36; -48.77; 111.26; 57.022; 59.93718; 10.531236; 245.5; 3.5028; 15.0; 23.0; 56.0; 3.706; 31112; 
-2.8749; 5.1201; -0.1754; 0.6534; 1.0605; 0.5745; 11.2225; 16.15; -46.38; -4.34; 170.36; -48.77; 111.26; 57.022; 59.93718; 10.531236; 245.5; 3.5028; 15.0; 23.0; 56.0; 3.706; 31212; 
0.6261; 2.9962; -1.3048; 1.9857; 0.8495; -0.3709; 11.2225; 16.15; -46.38; -4.34; 170.36; -48.77; 111.26; 52.24; 59.93718; 10.531236; 245.5; 3.5028; 15.0; 23.0; 56.0; 3.706; 31327; 
0.6261; 2.9962; -1.3048; 1.9857; 0.8495; -0.3709; 6.1002; 13.35; -43.38; 20.76; 234.99; -53.16; 118.11; 52.24; 59.93718; 10.531236; 245.5; 3.5028; 15.0; 23.0; 56.0; 3.706; 31428; 
-8.0543; 16.3942; -5.4771; -0.2313; 0.6853; 0.162; 6.1002; 13.35; -43.38; 20.76; 234.99; -53.16; 118.11; 52.24; 59.93718; 10.531236; 245.5; 3.5028; 15.0; 23.0; 56.0; 3.706; 31534; 
-8.0543; 16.3942; -5.4771; -0.2313; 0.6853; 0.162; 6.1002; 13.35; -43.38; 20.76; 234.99; -53.16; 118.11; 67.118; 59.93718; 10.531236; 245.5; 3.5028; 15.0; 23.0; 56.0; 3.706; 31635; 
-4.5987; 4.6767; -9.1834; -0.4359; -1.8471; -0.3507; 4.998; 14.05; -43.08; 22.18; 234.99; -53.16; 118.11; 67.118; 59.93718; 10.531236; 245.5; 3.5028; 15.0; 23.0; 56.0; 3.706; 31758; 
-4.6194; 5.2599; -3.8678; -0.4359; -1.8471; -0.3507; 4.998; 14.05; -43.08; 22.18; 234.99; -53.16; 118.11; 67.118; 59.93718; 10.531236; 245.5; 3.5028; 15.0; 23.0; 56.0; 3.706; 31864; 
-4.6194; 5.2599; -3.8678; -1.068; -0.89; -0.3624; 9.7498; 21.85; -44.38; 2.06; 143.87; -42.95; 141.12; 60.352; 59.93718; 10.531236; 245.5; 3.5028; 15.0; 23.0; 56.0; 3.706; 31969; 
-6.7273; 5.2656; -0.4557; -1.068; -0.89; -0.3624; 9.7498; 21.85; -44.38; 2.06; 143.87; -42.95; 141.12; 60.352; 59.93718; 10.531236; 245.5; 3.5028; 15.0; 23.0; 56.0; 3.706; 32072; 
-6.7273; 5.2656; -0.4557; -0.1407; -0.6864; 0.2633; 9.7498; 21.85; -44.38; 2.06; 143.87; -42.95; 141.12; 60.352; 59.93718; 10.531236; 245.5; 3.5028; 15.0; 23.0; 56.0; 3.706; 32173; 
-6.7273; 5.2656; -0.4557; -0.1407; -0.6864; 0.2633; 7.0217; 19.75; -44.28; -9.01; 143.87; -42.95; 141.12; 55.255; 59.93718; 10.531236; 245.5; 3.5028; 15.0; 23.0; 56.0; 3.706; 32273; 
-6.3597; 6.7866; 1.4671; 0.0608; 0.0213; 0.2196; 7.0217; 19.75; -44.28; -9.01; 143.87; -42.95; 141.12; 55.255; 59.93718; 10.531236; 245.5; 3.5028; 15.0; 23.0; 56.0; 3.706; 32386; 
-6.3597; 6.7866; 1.4671; 0.0608; 0.0213; 0.2196; 7.0217; 19.75; -44.28; -9.01; 143.87; -42.95; 141.12; 55.255; 59.93718; 10.531236; 245.5; 3.5028; 15.0; 23.0; 56.0; 3.706; 32486; 
-6.2387; 6.473; 1.4765; 0.2963; 0.5009; -0.1055; 4.3933; 17.35; -45.68; -7.38; 160.82; -44.83; 90.68; 55.255; 59.93718; 10.531236; 245.5; 3.5028; 15.0; 23.0; 56.0; 3.706; 32599; 
-6.2387; 6.473; 1.4765; 0.2963; 0.5009; -0.1055; 4.3933; 17.35; -45.68; -7.38; 160.82; -44.83; 90.68; 54.678; 59.93718; 10.531236; 245.5; 3.5028; 15.0; 23.0; 56.0; 3.706; 32699; 
-2.9605; 1.6621; -0.5188; 1.6713; 1.6734; 0.3944; 4.3933; 16.95; -44.38; 12.63; 160.82; -44.83; 90.68; 54.678; 59.93718; 10.531236; 245.5; 3.5028; 15.0; 23.0; 56.0; 3.706; 32812; 
-13.1617; 9.1584; -4.3636; 1.6713; 1.6734; 0.3944; 4.3933; 16.95; -44.38; 12.63; 160.82; -44.83; 90.68; 54.678; 59.93718; 10.531236; 245.5; 3.5028; 15.0; 23.0; 56.0; 3.706; 32914; 
-13.1617; 9.1584; -4.3636; 0.5201; -0.4445; 0.5351; 4.3933; 16.95; -44.38; 12.63; 160.82; -44.83; 90.68; 69.805; 59.93718; 10.531236; 245.5; 3.5028; 15.0; 23.0; 56.0; 3.706; 33014; 
-13.1617; 9.1584; -4.3636; 0.5201; -0.4445; 0.5351; 4.3933; 11.05; -46.48; 15.07; 198.38; -45.22; 122.74; 69.805; 59.93718; 10.531236; 245.5; 3.5028; 15.0; 23.0; 56.0; 3.706; 33114; 
-2.2823; 11.0515; -7.7973; -1.1831; -0.1194; -0.3858; 4.3933; 11.05; -46.48; 15.07; 198.38; -45.22; 122.74; 69.805; 59.93718; 10.531236; 245.5; 3.5028; 15.0; 23.0; 56.0; 3.706; 33215; 
-2.2823; 11.0515; -7.7973; -1.1831; -0.1194; -0.3858; 4.3933; 11.05; -46.48; 15.07; 198.38; -45.22; 122.74; 69.805; 59.93718; 10.531236; 245.5; 3.5028; 15.0; 23.0; 56.0; 3.706; 33315; 
-2.4395; 6.2365; -3.0396; -0.0959; 0.1833; -0.5127; 4.3933; 13.35; -47.58; 9.78; 198.38; -45.22; 122.74; 57.233; 59.93718; 10.531236; 245.5; 3.5028; 15.0; 23.0; 56.0; 3.706; 33431; 
-2.4395; 6.2365; -3.0396; -0.0959; 0.1833; -0.5127; 4.3933; 13.35; -47.58; 9.78; 198.38; -45.22; 122.74; 57.233; 59.93718; 10.531236; 245.5; 3.5028; 15.0; 23.0; 56.0; 3.706; 33532; 
-4.5384; 7.8811; -2.394; 0.1663; -0.8942; -0.4935; 4.3933; 22.65; -44.28; 6.53; 148.78; -51.31; 120.43; 57.233; 59.93718; 10.531236; 245.5; 3.5028; 15.0; 23.0; 56.0; 3.706; 33653; 
-7.2228; 6.1982; -4.2142; 0.1663; -0.8942; -0.4935; 6.3931; 22.65; -44.28; 6.53; 148.78; -51.31; 120.43; 54.916; 59.93718; 10.531236; 245.5; 3.5028; 15.0; 23.0; 56.0; 3.706; 33779; 
-7.2228; 6.1982; -4.2142; -0.1279; -1.1906; 0.1151; 6.3931; 22.65; -44.28; 6.53; 148.78; -51.31; 120.43; 54.916; 59.937138; 10.530994; 245.4; 4.5661497; 15.0; 23.0; 56.0; 3.706; 33879; 
-5.6605; 5.3096; -0.522; -0.1279; -1.1906; 0.1151; 13.2241; 21.75; -44.68; -2.81; 148.78; -51.31; 120.43; 54.916; 59.937138; 10.530994; 245.4; 4.5661497; 15.0; 23.0; 56.0; 3.706; 33986; 
-5.6605; 5.3096; -0.522; -0.1727; -1.0115; -0.1705; 13.2241; 21.75; -44.68; -2.81; 148.78; -51.31; 120.43; 54.941; 59.937138; 10.530994; 245.4; 4.5661497; 15.0; 23.0; 56.0; 3.706; 34087; 
-5.8976; 6.6372; 1.7487; -0.1727; -1.0115; -0.1705; 13.2241; 20.65; -43.48; -10.94; 138.31; -45.49; 102.88; 54.941; 59.937138; 10.530994; 245.4; 4.5661497; 15.0; 23.0; 56.0; 3.706; 34226; 
-5.8976; 6.6372; 1.7487; -0.1098; 0.4466; 0.1748; 23.7644; 20.65; -43.48; -10.94; 138.31; -45.49; 102.88; 54.941; 59.937138; 10.530994; 245.4; 4.5661497; 15.0; 23.0; 56.0; 3.706; 34326; 
-5.7587; 5.5153; 1.5883; -0.1098; 0.4466; 0.1748; 23.7644; 20.65; -43.48; -10.94; 138.31; -45.49; 102.88; 56.661; 59.937138; 10.530994; 245.4; 4.5661497; 15.0; 23.0; 56.0; 3.706; 34426; 
-5.7587; 5.5153; 1.5883; 0.6022; 0.9944; -0.0373; 5.3622; 21.15; -44.28; -6.27; 138.31; -45.49; 102.88; 56.661; 59.937138; 10.530994; 245.4; 4.5661497; 15.0; 23.0; 56.0; 3.706; 34535; 
-8.5171; 4.0594; -3.3786; 0.6022; 0.9944; -0.0373; 5.3622; 21.15; -44.28; -6.27; 138.31; -45.49; 102.88; 56.661; 59.937138; 10.530994; 245.4; 4.5661497; 15.0; 23.0; 56.0; 3.706; 34636; 
-8.5171; 4.0594; -3.3786; 1.0179; 1.3739; 0.3624; 5.3622; 18.65; -43.98; 12.32; 192.93; -43.78; 112.61; 68.897; 59.937138; 10.530994; 245.4; 4.5661497; 15.0; 23.0; 56.0; 3.706; 34747; 
-9.5239; 7.1217; -2.9921; 1.0179; 1.3739; 0.3624; 4.5505; 18.65; -43.98; 12.32; 192.93; -43.78; 112.61; 68.897; 59.937138; 10.530994; 245.4; 4.5661497; 15.0; 23.0; 56.0; 3.706; 34860; 
-9.5239; 7.1217; -2.9921; 0.2078; -0.6011; 0.8324; 4.5505; 18.65; -43.98; 12.32; 192.93; -43.78; 112.61; 68.897; 59.937138; 10.530994; 245.4; 4.5661497; 15.0; 23.0; 56.0; 3.706; 34960; 
-7.0358; 11.0181; -7.8944; 0.2078; -0.6011; 0.8324; 4.5505; 11.65; -46.28; 14.86; 192.93; -43.78; 112.61; 68.897; 59.937138; 10.530994; 245.4; 4.5661497; 15.0; 23.0; 56.0; 3.706; 35060; 
-7.0358; 11.0181; -7.8944; -1.8024; -0.0224; -0.0469; 4.5505; 11.65; -46.28; 14.86; 192.93; -43.78; 112.61; 66.988; 59.937138; 10.530994; 245.4; 4.5661497; 15.0; 23.0; 56.0; 3.706; 35160; 
-4.0558; 6.4953; -3.2599; -1.8024; -0.0224; -0.0469; 4.3933; 11.65; -46.28; 14.86; 192.93; -43.78; 112.61; 66.988; 59.937138; 10.530994; 245.4; 4.5661497; 15.0; 23.0; 56.0; 3.706; 35261; 
-4.0558; 6.4953; -3.2599; -1.0893; -0.6875; -0.1727; 4.3933; 12.65; -48.58; -2.2; 160.81; -50.06; 119.85; 66.988; 59.937138; 10.530994; 245.4; 4.5661497; 15.0; 23.0; 56.0; 3.706; 35362; 
-3.9211; 7.5525; 0.2356; -1.0893; -0.6875; -0.1727; 5.1165; 12.65; -48.58; -2.2; 160.81; -50.06; 119.85; 52.329; 59.937138; 10.530994; 245.4; 4.5661497; 15.0; 23.0; 56.0; 3.706; 35474; 
-3.9211; 7.5525; 0.2356; -0.6448; 0.113; -0.1993; 5.1165; 12.65; -48.58; -2.2; 160.81; -50.06; 119.85; 52.329; 59.937138; 10.530994; 245.4; 4.5661497; 15.0; 23.0; 56.0; 3.706; 35574; 
-4.0808; 5.788; 2.4838; -0.6448; 0.113; -0.1993; 5.1165; 15.05; -45.48; -12.46; 160.81; -50.06; 119.85; 52.329; 59.937138; 10.530994; 245.4; 4.5661497; 15.0; 23.0; 56.0; 3.706; 35674; 
-4.0808; 5.788; 2.4838; 1.8492; 0.9156; 0.1343; 5.1165; 15.05; -45.48; -12.46; 160.81; -50.06; 119.85; 52.329; 59.937138; 10.530994; 245.4; 4.5661497; 15.0; 23.0; 56.0; 3.706; 35775; 
-2.7453; 5.7614; -2.0988; 1.8492; 0.9156; 0.1343; 4.8821; 14.05; -44.68; 14.15; 222.25; -53.21; 81.84; 58.496; 59.937138; 10.530994; 245.4; 4.5661497; 15.0; 23.0; 56.0; 3.706; 35897; 
-2.7453; 5.7614; -2.0988; 1.2023; 0.6214; -0.0746; 4.8821; 14.05; -44.68; 14.15; 222.25; -53.21; 81.84; 58.496; 59.937138; 10.530994; 245.4; 4.5661497; 15.0; 23.0; 56.0; 3.706; 36032; 
-7.0415; 17.328; -6.7526; 1.2023; 0.6214; -0.0746; 4.2915; 14.05; -44.68; 14.15; 222.25; -53.21; 81.84; 58.496; 59.937138; 10.530994; 245.4; 4.5661497; 15.0; 23.0; 56.0; 3.706; 36142; 
-7.0415; 17.328; -6.7526; -1.5551; 0.3965; -0.3613; 4.2915; 11.25; -40.57; 26.14; 222.25; -53.21; 81.84; 70.705; 59.937138; 10.530994; 245.4; 4.5661497; 15.0; 23.0; 56.0; 3.706; 36245; 
-6.6188; 6.4886; -10.8421; -0.2164; -0.0863; -0.1631; 4.2915; 11.25; -40.57; 26.14; 222.25; -53.21; 81.84; 70.705; 59.937138; 10.530994; 245.4; 4.5661497; 15.0; 23.0; 56.0; 3.706; 36383; 
-6.6188; 6.4886; -10.8421; -0.2164; -0.0863; -0.1631; 4.2915; 19.05; -45.08; 9.89; 165.83; -46.22; 128.54; 62.692; 59.937138; 10.530994; 245.4; 4.5661497; 15.0; 23.0; 56.0; 3.706; 36489; 
-4.5423; 5.1289; -3.8386; -0.6875; -1.2055; -0.3816; 4.2415; 19.05; -45.08; 9.89; 165.83; -46.22; 128.54; 62.692; 59.937138; 10.530994; 245.4; 4.5661497; 15.0; 23.0; 56.0; 3.706; 36594; 
-4.5423; 5.1289; -3.8386; -0.6875; -1.2055; -0.3816; 4.2415; 19.05; -45.08; 9.89; 165.83; -46.22; 128.54; 62.692; 59.937138; 10.530994; 245.4; 4.5661497; 15.0; 23.0; 56.0; 3.706; 36695; 
-6.5315; 4.6439; -0.232; -0.2388; 0.0341; -0.3848; 5.7529; 24.05; -42.88; -3.52; 165.83; -46.22; 128.54; 62.692; 59.937138; 10.530994; 245.4; 4.5661497; 15.0; 23.0; 56.0; 3.706; 36806; 
-6.5315; 4.6439; -0.232; -0.2388; 0.0341; -0.3848; 5.7529; 24.05; -42.88; -3.52; 165.83; -46.22; 128.54; 54.317; 59.937115; 10.530766; 245.9; 3.94065; 15.0; 23.0; 56.0; 3.706; 36906; 
-4.8785; 4.3154; -0.4967; 1.2044; 0.7237; -0.3677; 5.7529; 27.95; -40.47; 4.4; 181.37; -43.19; 97.66; 54.317; 59.937115; 10.530766; 245.9; 3.94065; 15.0; 23.0; 56.0; 3.706; 37012; 
-4.8785; 4.3154; -0.4967; 1.2044; 0.7237; -0.3677; 4.3933; 27.95; -40.47; 4.4; 181.37; -43.19; 97.66; 54.317; 59.937115; 10.530766; 245.9; 3.94065; 15.0; 23.0; 56.0; 3.706; 37112; 
-10.3065; 6.0; -3.543; 0.211; -0.2014; 0.5841; 4.3933; 27.95; -40.47; 4.4; 181.37; -43.19; 97.66; 54.317; 59.937115; 10.530766; 245.9; 3.94065; 15.0; 23.0; 56.0; 3.706; 37212; 
-10.3065; 6.0; -3.543; 0.211; -0.2014; 0.5841; 4.3933; 22.55; -43.18; 10.8; 181.37; -43.19; 97.66; 70.125; 59.937115; 10.530766; 245.9; 3.94065; 15.0; 23.0; 56.0; 3.706; 37312; 
-6.9304; 4.8198; -3.0322; 0.0671; 0.0298; 0.5276; 4.3933; 22.55; -43.18; 10.8; 181.37; -43.19; 97.66; 70.125; 59.937115; 10.530766; 245.9; 3.94065; 15.0; 23.0; 56.0; 3.706; 37436; 
-6.9304; 4.8198; -3.0322; 0.0671; 0.0298; 0.5276; 4.3933; 22.55; -43.18; 10.8; 181.37; -43.19; 97.66; 70.125; 59.937115; 10.530766; 245.9; 3.94065; 15.0; 23.0; 56.0; 3.706; 37537; 
-7.1539; 4.8165; -4.2417; 0.0831; -0.744; 0.4754; 4.3421; 17.05; -45.88; 11.11; 179.82; -38.12; 123.11; 54.24; 59.937115; 10.530766; 245.9; 3.94065; 15.0; 23.0; 56.0; 3.706; 37651; 
-7.1379; 9.5891; -5.2916; 0.0831; -0.744; 0.4754; 4.3421; 17.05; -45.88; 11.11; 179.82; -38.12; 123.11; 54.24; 59.937115; 10.530766; 245.9; 3.94065; 15.0; 23.0; 56.0; 3.706; 37784; 
-7.1379; 9.5891; -5.2916; -0.3038; -0.3688; 0.0362; 4.998; 15.35; -47.58; 5.92; 179.82; -38.12; 123.11; 54.24; 59.937115; 10.530766; 245.9; 3.94065; 15.0; 23.0; 56.0; 3.706; 37892; 
-4.702; 6.4338; -1.5461; -0.3038; -0.3688; 0.0362; 4.998; 15.35; -47.58; 5.92; 179.82; -38.12; 123.11; 53.403; 59.937115; 10.530766; 245.9; 3.94065; 15.0; 23.0; 56.0; 3.706; 37992; 
-4.702; 6.4338; -1.5461; -0.4871; -0.2569; 0.0266; 4.998; 15.35; -47.58; 5.92; 179.82; -38.12; 123.11; 53.403; 59.937115; 10.530766; 245.9; 3.94065; 15.0; 23.0; 56.0; 3.706; 38092; 
-3.3309; 5.5966; 0.5738; -0.4871; -0.2569; 0.0266; 6.8589; 15.05; -47.68; -2.91; 164.34; -48.6; 101.51; 53.403; 59.937115; 10.530766; 245.9; 3.94065; 15.0; 23.0; 56.0; 3.706; 38194; 
-3.3309; 5.5966; 0.5738; 0.7131; 0.3443; 0.243; 6.8589; 15.05; -47.68; -2.91; 164.34; -48.6; 101.51; 49.661; 59.937115; 10.530766; 245.9; 3.94065; 15.0; 23.0; 56.0; 3.706; 38294; 
-4.8755; 7.1801; -3.0477; 0.7131; 0.3443; 0.243; 5.5541; 12.75; -46.68; 13.34; 164.34; -48.6; 101.51; 49.661; 59.937115; 10.530766; 245.9; 3.94065; 15.0; 23.0; 56.0; 3.706; 38427; 
-4.8755; 7.1801; -3.0477; -0.1503; 0.1055; -0.1641; 5.5541; 12.75; -46.68; 13.34; 164.34; -48.6; 101.51; 49.661; 59.937115; 10.530766; 245.9; 3.94065; 15.0; 23.0; 56.0; 3.706; 38527; 
-5.6669; 10.9683; -5.3102; -0.1503; 0.1055; -0.1641; 5.5541; 12.75; -46.68; 13.34; 164.34; -48.6; 101.51; 72.54; 59.937115; 10.530766; 245.9; 3.94065; 15.0; 23.0; 56.0; 3.706; 38627; 
-5.6669; 10.9683; -5.3102; -0.2196; 0.2068; -0.6011; 5.5541; 12.95; -44.68; 19.13; 198.22; -44.82; 132.29; 72.54; 59.937115; 10.530766; 245.9; 3.94065; 15.0; 23.0; 56.0; 3.706; 38727; 
-3.4981; 6.4794; -4.8602; -0.2196; 0.2068; -0.6011; 5.2379; 12.95; -44.68; 19.13; 198.22; -44.82; 132.29; 72.54; 59.937115; 10.530766; 245.9; 3.94065; 15.0; 23.0; 56.0; 3.706; 38841; 
-3.4981; 6.4794; -4.8602; -0.4658; -0.3389; -0.599; 5.2379; 12.95; -44.68; 19.13; 198.22; -44.82; 132.29; 72.54; 59.937115; 10.530766; 245.9; 3.94065; 15.0; 23.0; 56.0; 3.706; 38941; 
-9.2579; 11.0469; -5.7871; -0.4658; -0.3389; -0.599; 5.2379; 21.15; -42.48; 15.17; 198.22; -44.82; 132.29; 52.938; 59.937115; 10.530766; 245.9; 3.94065; 15.0; 23.0; 56.0; 3.706; 39041; 
-9.2579; 11.0469; -5.7871; -0.8569; -0.6768; -0.5073; 6.3931; 21.15; -42.48; 15.17; 198.22; -44.82; 132.29; 52.938; 59.937115; 10.530766; 245.9; 3.94065; 15.0; 23.0; 56.0; 3.706; 39141; 
-5.4717; 4.5182; -3.0267; -0.8569; -0.6768; -0.5073; 6.3931; 26.25; -41.78; 5.62; 140.55; -42.05; 131.52; 52.938; 59.937115; 10.530766; 245.9; 3.94065; 15.0; 23.0; 56.0; 3.706; 39275; 
-5.4717; 4.5182; -3.0267; -0.5628; -0.0064; -0.3251; 5.6196; 26.25; -41.78; 5.62; 140.55; -42.05; 131.52; 52.122; 59.937115; 10.530766; 245.9; 3.94065; 15.0; 23.0; 56.0; 3.706; 39375; 
-6.2238; 4.6799; -2.6345; -0.5628; -0.0064; -0.3251; 5.6196; 26.25; -41.78; 5.62; 140.55; -42.05; 131.52; 52.122; 59.937115; 10.530766; 245.9; 3.94065; 15.0; 23.0; 56.0; 3.706; 39475; 
-6.2238; 4.6799; -2.6345; -1.0946; 0.7962; 0.0128; 5.6196; 28.55; -40.17; 0.44; 140.55; -42.05; 131.52; 52.122; 59.937115; 10.530766; 245.9; 3.94065; 15.0; 23.0; 56.0; 3.706; 39575; 
-6.5942; 6.8975; -1.5653; -1.0946; 0.7962; 0.0128; 6.7; 28.55; -40.17; 0.44; 140.55; -42.05; 131.52; 52.122; 59.937115; 10.530766; 245.9; 3.94065; 15.0; 23.0; 56.0; 3.706; 39676; 
-6.5942; 6.8975; -1.5653; -1.1298; 0.1492; -0.825; 6.7; 28.55; -40.17; 0.44; 140.55; -42.05; 131.52; 57.752; 59.937103; 10.530531; 245.6; 4.8788996; 15.0; 23.0; 56.0; 3.706; 39792; 
-7.4567; 5.278; -3.0164; -1.1298; 0.1492; -0.825; 6.7; 34.45; -35.07; -2.3; 118.6; -40.13; 105.42; 57.752; 59.937103; 10.530531; 245.6; 4.8788996; 15.0; 23.0; 56.0; 3.706; 39892; 
-7.4567; 5.278; -3.0164; -0.2856; 0.6662; -0.4317; 6.7; 34.45; -35.07; -2.3; 118.6; -40.13; 105.42; 57.752; 59.937103; 10.530531; 245.6; 4.8788996; 15.0; 23.0; 56.0; 3.706; 39992; 
-8.194; 3.8404; -4.4938; -0.2856; 0.6662; -0.4317; 6.7; 38.65; -30.37; 4.1; 118.6; -40.13; 105.42; 73.74; 59.937103; 10.530531; 245.6; 4.8788996; 15.0; 23.0; 56.0; 3.706; 40106; 
-8.194; 3.8404; -4.4938; -0.372; 0.2622; 0.3986; 6.7; 38.65; -30.37; 4.1; 118.6; -40.13; 105.42; 73.74; 59.937103; 10.530531; 245.6; 4.8788996; 15.0; 23.0; 56.0; 3.706; 40206; 
-8.1434; 5.1668; -4.3901; -0.372; 0.2622; 0.3986; 6.7; 38.65; -30.37; 4.1; 118.6; -40.13; 105.42; 73.74; 59.937103; 10.530531; 245.6; 4.8788996; 15.0; 23.0; 56.0; 3.706; 40331; 
-8.1434; 5.1668; -4.3901; -0.0735; -0.3198; 0.7045; 6.7; 33.75; -35.57; 3.08; 141.45; -30.82; 114.76; 54.523; 59.937103; 10.530531; 245.6; 4.8788996; 15.0; 23.0; 56.0; 3.706; 40431; 
-6.5245; 5.4425; -3.5786; -0.0735; -0.3198; 0.7045; 6.7; 33.75; -35.57; 3.08; 141.45; -30.82; 114.76; 54.523; 59.937103; 10.530531; 245.6; 4.8788996; 15.0; 23.0; 56.0; 3.706; 40531; 
-6.5245; 5.4425; -3.5786; 0.8964; -0.9934; 1.0744; 6.7; 22.65; -44.28; 1.15; 141.45; -30.82; 114.76; 54.523; 59.937103; 10.530531; 245.6; 4.8788996; 15.0; 23.0; 56.0; 3.706; 40648; 
-5.3533; 7.3009; -4.1828; 0.8964; -0.9934; 1.0744; 4.4975; 22.65; -44.28; 1.15; 141.45; -30.82; 114.76; 54.523; 59.937103; 10.530531; 245.6; 4.8788996; 15.0; 23.0; 56.0; 3.706; 40756; 
-5.3533; 7.3009; -4.1828; -0.1087; -1.1671; 0.6566; 4.4975; 22.65; -44.28; 1.15; 141.45; -30.82; 114.76; 67.315; 59.937103; 10.530531; 245.6; 4.8788996; 15.0; 23.0; 56.0; 3.706; 40856; 
-4.3761; 8.3769; -1.3857; -0.1087; -1.1671; 0.6566; 4.4975; 13.95; -48.18; -1.8; 163.76; -43.35; 115.38; 67.315; 59.937103; 10.530531; 245.6; 4.8788996; 15.0; 23.0; 56.0; 3.706; 40956; 
-4.3761; 8.3769; -1.3857; 0.2185; -0.7109; 0.1236; 8.3716; 13.95; -48.18; -1.8; 163.76; -43.35; 115.38; 67.315; 59.937103; 10.530531; 245.6; 4.8788996; 15.0; 23.0; 56.0; 3.706; 41085; 
-2.5923; 4.8218; 0.019; 0.2185; -0.7109; 0.1236; 8.3716; 13.95; -48.18; -1.8; 163.76; -43.35; 115.38; 52.915; 59.937103; 10.530531; 245.6; 4.8788996; 15.0; 23.0; 56.0; 3.706; 41186; 
-2.5923; 4.8218; 0.019; 1.894; 0.323; -0.3667; 8.3716; 14.95; -46.88; 7.85; 163.76; -43.35; 115.38; 52.915; 59.937103; 10.530531; 245.6; 4.8788996; 15.0; 23.0; 56.0; 3.706; 41287; 
-9.9937; 9.1288; -8.2571; 1.894; 0.323; -0.3667; 7.0217; 14.95; -46.88; 7.85; 163.76; -43.35; 115.38; 52.915; 59.937103; 10.530531; 245.6; 4.8788996; 15.0; 23.0; 56.0; 3.706; 41387; 
-9.9937; 9.1288; -8.2571; 0.6555; 0.3464; 0.2025; 7.0217; 15.65; -40.87; 24.82; 198.27; -36.38; 137.34; 69.758; 59.937103; 10.530531; 245.6; 4.8788996; 15.0; 23.0; 56.0; 3.706; 41521; 
-7.6329; 8.0907; -6.6351; -0.0139; -0.3485; 0.3592; 7.0217; 15.65; -40.87; 24.82; 198.27; -36.38; 137.34; 69.758; 59.937103; 10.530531; 245.6; 4.8788996; 15.0; 23.0; 56.0; 3.706; 41655; 
-4.4511; 3.4798; -4.9321; -0.0139; -0.3485; 0.3592; 6.0291; 13.65; -43.48; 21.67; 198.27; -36.38; 137.34; 69.758; 59.937103; 10.530531; 245.6; 4.8788996; 15.0; 23.0; 56.0; 3.706; 41798; 
-4.4511; 3.4798; -4.9321; -0.3006; -0.8623; 0.4551; 7.273; 13.65; -43.48; 21.67; 198.27; -36.38; 137.34; 51.883; 59.937103; 10.530531; 245.6; 4.8788996; 15.0; 23.0; 56.0; 3.706; 41924; 
-9.6961; 7.5313; -3.0852; -0.3006; -0.8623; 0.4551; 7.273; 12.45; -46.18; 14.76; 190.11; -40.91; 129.31; 51.883; 59.937103; 10.530531; 245.6; 4.8788996; 15.0; 23.0; 56.0; 3.706; 42027; 
-9.6961; 7.5313; -3.0852; -1.0126; -0.4136; 0.1077; 7.273; 12.45; -46.18; 14.76; 190.11; -40.91; 129.31; 51.883; 59.937103; 10.530531; 245.6; 4.8788996; 15.0; 23.0; 56.0; 3.706; 42127; 
-4.3664; 8.442; -2.4495; -1.0126; -0.4136; 0.1077; 13.07; 12.45; -46.18; 14.76; 190.11; -40.91; 129.31; 52.137; 59.937103; 10.530531; 245.6; 4.8788996; 15.0; 23.0; 56.0; 3.706; 42227; 
-4.3664; 8.442; -2.4495; -0.6992; 0.2153; 0.1354; 13.07; 10.35; -49.58; 2.98; 190.11; -40.91; 129.31; 52.137; 59.937103; 10.530531; 245.6; 4.8788996; 15.0; 23.0; 56.0; 3.706; 42327; 
-3.2137; 6.8968; -0.4179; -0.6992; 0.2153; 0.1354; 13.07; 10.35; -49.58; 2.98; 190.11; -40.91; 129.31; 52.137; 59.937103; 10.530531; 245.6; 4.8788996; 15.0; 23.0; 56.0; 3.706; 42428; 
-3.2137; 6.8968; -0.4179; -0.1737; 0.3315; 0.0682; 11.6242; 8.85; -49.58; 4.71; 186.28; -54.2; 106.01; 46.676; 59.937103; 10.530531; 245.6; 4.8788996; 15.0; 23.0; 56.0; 3.706; 42541; 
0.0272; 2.7031; -1.4414; -0.1737; 0.3315; 0.0682; 11.6242; 8.85; -49.58; 4.71; 186.28; -54.2; 106.01; 46.676; 59.937103; 10.530531; 245.6; 4.8788996; 15.0; 23.0; 56.0; 3.706; 42642; 
0.0272; 2.7031; -1.4414; 3.4544; 1.0158; -0.3848; 5.1165; 8.85; -49.58; 4.71; 186.28; -54.2; 106.01; 46.676; 59.937103; 10.530531; 245.6; 4.8788996; 15.0; 23.0; 56.0; 3.706; 42755; 
-2.8715; 6.7876; -4.5621; 3.4544; 1.0158; -0.3848; 5.1165; 5.15; -38.37; 31.73; 186.28; -54.2; 106.01; 46.676; 59.93705; 10.530305; 245.5; 4.5036; 15.0; 23.0; 56.0; 3.706; 42862; 
-2.8715; 6.7876; -4.5621; 0.9859; 0.5894; -0.1961; 5.1165; 5.15; -38.37; 31.73; 186.28; -54.2; 106.01; 72.428; 59.93705; 10.530305; 245.5; 4.5036; 15.0; 23.0; 56.0; 3.706; 42962; 
-3.9621; 9.1556; -9.6435; 0.9859; 0.5894; -0.1961; 5.1165; 5.15; -38.37; 31.73; 186.28; -54.2; 106.01; 72.428; 59.93705; 10.530305; 245.5; 4.5036; 15.0; 23.0; 56.0; 3.706; 43062; 
-3.9621; 9.1556; -9.6435; -1.7459; -0.3901; -0.8442; 5.1165; 4.25; -34.77; 36.61; 267.97; -47.64; 140.02; 72.428; 59.93705; 10.530305; 245.5; 4.5036; 15.0; 23.0; 56.0; 3.706; 43177; 
-4.1772; 10.7544; -9.2053; -1.7459; -0.3901; -0.8442; 5.1165; 4.25; -34.77; 36.61; 267.97; -47.64; 140.02; 61.252; 59.93705; 10.530305; 245.5; 4.5036; 15.0; 23.0; 56.0; 3.706; 43278; 
-4.1772; 10.7544; -9.2053; -0.9433; -0.3368; -0.1823; 5.1165; 12.95; -43.08; 23.6; 267.97; -47.64; 140.02; 61.252; 59.93705; 10.530305; 245.5; 4.5036; 15.0; 23.0; 56.0; 3.706; 43399; 
-4.211; 2.9664; -7.9805; -0.9433; -0.3368; -0.1823; 5.1165; 12.95; -43.08; 23.6; 267.97; -47.64; 140.02; 61.252; 59.93705; 10.530305; 245.5; 4.5036; 15.0; 23.0; 56.0; 3.706; 43499; 
-4.211; 2.9664; -7.9805; -0.7354; -0.7141; -0.6438; 5.4894; 12.95; -43.08; 23.6; 267.97; -47.64; 140.02; 58.809; 59.93705; 10.530305; 245.5; 4.5036; 15.0; 23.0; 56.0; 3.706; 43602; 
-4.7736; 4.3736; -2.8083; -0.7354; -0.7141; -0.6438; 5.4894; 22.55; -46.98; 9.18; 157.89; -45.34; 126.72; 58.809; 59.93705; 10.530305; 245.5; 4.5036; 15.0; 23.0; 56.0; 3.706; 43733; 
-4.7736; 4.3736; -2.8083; 0.3635; -0.016; 0.2302; 5.1769; 22.55; -46.98; 9.18; 157.89; -45.34; 126.72; 58.809; 59.93705; 10.530305; 245.5; 4.5036; 15.0; 23.0; 56.0; 3.706; 43833; 
-4.8513; 3.0466; -1.1052; 0.3635; -0.016; 0.2302; 5.1769; 21.85; -42.78; 13.24; 157.89; -45.34; 126.72; 65.439; 59.93705; 10.530305; 245.5; 4.5036; 15.0; 23.0; 56.0; 3.706; 43962; 
-5.7906; 8.6128; -8.8737; 1.3952; 2.169; 0.809; 4.2915; 21.85; -42.78; 13.24; 157.89; -45.34; 126.72; 65.439; 59.93705; 10.530305; 245.5; 4.5036; 15.0; 23.0; 56.0; 3.706; 44066; 
-5.7906; 8.6128; -8.8737; 1.3952; 2.169; 0.809; 4.2915; 21.85; -42.78; 13.24; 157.89; -45.34; 126.72; 65.439; 59.93705; 10.530305; 245.5; 4.5036; 15.0; 23.0; 56.0; 3.706; 44167; 
-5.7906; 8.6128; -8.8737; 1.3877; 0.632; 0.0842; 4.2915; 8.35; -40.57; 29.29; 232.86; -42.09; 116.19; 65.439; 59.93705; 10.530305; 245.5; 4.5036; 15.0; 23.0; 56.0; 3.706; 44268; 
-9.3558; 8.953; -9.3449; 1.3877; 0.632; 0.0842; 4.2915; 8.35; -40.57; 29.29; 232.86; -42.09; 116.19; 69.44; 59.93705; 10.530305; 245.5; 4.5036; 15.0; 23.0; 56.0; 3.706; 44368; 
-9.3558; 8.953; -9.3449; -0.3858; -0.7887; 0.3965; 4.2915; 8.35; -40.57; 29.29; 232.86; -42.09; 116.19; 69.44; 59.93705; 10.530305; 245.5; 4.5036; 15.0; 23.0; 56.0; 3.706; 44469; 
-6.9252; 4.5874; -9.7459; -0.3858; -0.7887; 0.3965; 4.2915; 8.05; -40.97; 28.88; 232.86; -42.09; 116.19; 69.44; 59.93705; 10.530305; 245.5; 4.5036; 15.0; 23.0; 56.0; 3.706; 44571; 
-6.9252; 4.5874; -9.7459; -1.5359; -1.6702; -0.2174; 4.2915; 8.05; -40.97; 28.88; 232.86; -42.09; 116.19; 66.537; 59.93705; 10.530305; 245.5; 4.5036; 15.0; 23.0; 56.0; 3.706; 44672; 
-1.5024; 6.6141; -6.6493; -1.5359; -1.6702; -0.2174; 4.192; 17.65; -49.28; 12.12; 160.01; -34.16; 154.07; 66.537; 59.93705; 10.530305; 245.5; 4.5036; 15.0; 23.0; 56.0; 3.706; 44798; 
-1.5024; 6.6141; -6.6493; -1.894; -0.6107; -0.4636; 4.192; 17.65; -49.28; 12.12; 160.01; -34.16; 154.07; 66.537; 59.93705; 10.530305; 245.5; 4.5036; 15.0; 23.0; 56.0; 3.706; 44898; 
-3.6156; 6.5456; -1.0839; -1.894; -0.6107; -0.4636; 4.192; 17.65; -49.28; 12.12; 160.01; -34.16; 154.07; 66.989; 59.93705; 10.530305; 245.5; 4.5036; 15.0; 23.0; 56.0; 3.706; 44998; 
-3.6156; 6.5456; -1.0839; 0.0608; -0.0682; 0.1748; 4.5505; 17.85; -46.58; -3.73; 160.01; -34.16; 154.07; 66.989; 59.93705; 10.530305; 245.5; 4.5036; 15.0; 23.0; 56.0; 3.706; 45099; 
-3.0433; 3.5448; 1.3912; 0.0608; -0.0682; 0.1748; 4.5505; 17.85; -46.58; -3.73; 160.01; -34.16; 154.07; 66.989; 59.93705; 10.530305; 245.5; 4.5036; 15.0; 23.0; 56.0; 3.706; 45199; 
-3.0433; 3.5448; 1.3912; 2.5591; 1.3387; 0.6054; 4.5505; 17.85; -46.58; -3.73; 160.01; -34.16; 154.07; 66.989; 59.93705; 10.530305; 245.5; 4.5036; 15.0; 23.0; 56.0; 3.706; 45299; 
-5.1438; 9.503; -6.1054; 2.5591; 1.3387; 0.6054; 4.5505; 13.95; -40.67; 24.62; 239.61; -48.73; 104.69; 71.586; 59.93705; 10.530305; 245.5; 4.5036; 15.0; 23.0; 56.0; 3.706; 45399; 
-5.1438; 9.503; -6.1054; 0.0981; 0.5084; -0.2025; 4.5505; 13.95; -40.67; 24.62; 239.61; -48.73; 104.69; 71.586; 59.93705; 10.530305; 245.5; 4.5036; 15.0; 23.0; 56.0; 3.706; 45499; 
-5.6466; 15.5862; -10.6372; 0.0981; 0.5084; -0.2025; 4.5505; 13.95; -40.67; 24.62; 239.61; -48.73; 104.69; 71.586; 59.93705; 10.530305; 245.5; 4.5036; 15.0; 23.0; 56.0; 3.706; 45599; 
-5.6466; 15.5862; -10.6372; 0.0821; -0.4359; -0.0597; 4.5505; 12.55; -40.07; 28.27; 239.61; -48.73; 104.69; 71.586; 59.93705; 10.530305; 245.5; 4.5036; 15.0; 23.0; 56.0; 3.706; 45706; 
-4.9878; 3.7856; -10.4179; 0.0821; -0.4359; -0.0597; 4.5505; 12.55; -40.07; 28.27; 239.61; -48.73; 104.69; 65.29; 59.93705; 10.530305; 245.5; 4.5036; 15.0; 23.0; 56.0; 3.706; 45806; 
-4.9878; 3.7856; -10.4179; -1.5092; -2.072; 0.0011; 4.5505; 18.95; -44.68; 13.04; 159.57; -39.93; 143.82; 65.29; 59.93703; 10.53012; 245.5; 3.8781; 15.0; 23.0; 56.0; 3.706; 45929; 
-4.8052; 4.5422; -3.6162; -1.5092; -2.072; 0.0011; 4.4975; 18.95; -44.68; 13.04; 159.57; -39.93; 143.82; 65.29; 59.93703; 10.53012; 245.5; 3.8781; 15.0; 23.0; 56.0; 3.706; 46029; 
-4.8052; 4.5422; -3.6162; 0.0277; -0.486; 0.1535; 4.4975; 18.95; -44.68; 13.04; 159.57; -39.93; 143.82; 61.693; 59.93703; 10.53012; 245.5; 3.8781; 15.0; 23.0; 56.0; 3.706; 46141; 
-4.9483; 4.8293; 1.6659; 0.0277; -0.486; 0.1535; 4.4975; 20.45; -45.48; 1.45; 159.57; -39.93; 143.82; 61.693; 59.93703; 10.53012; 245.5; 3.8781; 15.0; 23.0; 56.0; 3.706; 46241; 
-4.9483; 4.8293; 1.6659; 1.2502; 2.6881; 0.227; 5.2379; 20.45; -45.48; 1.45; 159.57; -39.93; 143.82; 61.693; 59.93703; 10.53012; 245.5; 3.8781; 15.0; 23.0; 56.0; 3.706; 46341; 
-1.8898; 2.8405; -5.0345; 1.2502; 2.6881; 0.227; 5.2379; 20.45; -45.48; 1.45; 159.57; -39.93; 143.82; 73.262; 59.93703; 10.53012; 245.5; 3.8781; 15.0; 23.0; 56.0; 3.706; 46442; 
-1.8898; 2.8405; -5.0345; 1.9708; 1.2609; 0.7802; 4.3933; 13.45; -40.87; 24.92; 234.12; -45.77; 102.55; 73.262; 59.93703; 10.53012; 245.5; 3.8781; 15.0; 23.0; 56.0; 3.706; 46553; 
-12.4611; 7.4506; -8.4474; 1.9708; 1.2609; 0.7802; 4.3933; 13.45; -40.87; 24.92; 234.12; -45.77; 102.55; 73.262; 59.93703; 10.53012; 245.5; 3.8781; 15.0; 23.0; 56.0; 3.706; 46654; 
-12.4611; 7.4506; -8.4474; -1.4922; -1.2737; -0.4263; 4.3933; 10.65; -41.98; 25.63; 234.12; -45.77; 102.55; 73.262; 59.93703; 10.53012; 245.5; 3.8781; 15.0; 23.0; 56.0; 3.706; 46768; 
-3.8355; 8.9444; -9.7977; -1.4922; -1.2737; -0.4263; 4.2915; 10.65; -41.98; 25.63; 234.12; -45.77; 102.55; 63.218; 59.93703; 10.53012; 245.5; 3.8781; 15.0; 23.0; 56.0; 3.706; 46870; 
-3.8355; 8.9444; -9.7977; -1.2406; -0.4018; -0.3475; 4.2915; 10.65; -41.98; 25.63; 234.12; -45.77; 102.55; 63.218; 59.93703; 10.53012; 245.5; 3.8781; 15.0; 23.0; 56.0; 3.706; 46982; 
-3.1403; 6.586; -3.5985; -1.2406; -0.4018; -0.3475; 4.3421; 13.75; -47.98; 6.23; 169.15; -45.53; 130.19; 63.218; 59.93703; 10.53012; 245.5; 3.8781; 15.0; 23.0; 56.0; 3.706; 47108; 
-3.1403; 6.586; -3.5985; -1.101; -0.3166; -0.048; 4.3421; 13.75; -47.98; 6.23; 169.15; -45.53; 130.19; 55.958; 59.93703; 10.53012; 245.5; 3.8781; 15.0; 23.0; 56.0; 3.706; 47216; 
-3.6211; 5.0798; 1.8454; -1.101; -0.3166; -0.048; 4.3421; 15.15; -47.58; -2.2; 169.15; -45.53; 130.19; 55.958; 59.93703; 10.53012; 245.5; 3.8781; 15.0; 23.0; 56.0; 3.706; 47340; 
0.3753; 3.0134; -3.8961; 2.8341; 0.8271; 0.1194; 5.1165; 15.15; -47.58; -2.2; 169.15; -45.53; 130.19; 55.958; 59.93703; 10.53012; 245.5; 3.8781; 15.0; 23.0; 56.0; 3.706; 47444; 
0.3753; 3.0134; -3.8961; 2.8341; 0.8271; 0.1194; 5.1165; 15.15; -47.58; -2.2; 169.15; -45.53; 130.19; 71.485; 59.93703; 10.53012; 245.5; 3.8781; 15.0; 23.0; 56.0; 3.706; 47545; 
-6.2555; 13.4911; -4.2748; 0.923; 1.6403; 0.0586; 4.3421; 10.65; -42.18; 25.13; 232.22; -52.33; 79.88; 71.485; 59.93703; 10.53012; 245.5; 3.8781; 15.0; 23.0; 56.0; 3.706; 47688; 
-6.2555; 13.4911; -4.2748; -1.5977; -1.2215; -0.502; 4.3421; 11.25; -40.67; 27.36; 232.22; -52.33; 79.88; 71.485; 59.93703; 10.53012; 245.5; 3.8781; 15.0; 23.0; 56.0; 3.706; 47798; 
-3.9994; 4.2116; -9.437; -1.5977; -1.2215; -0.502; 4.3421; 11.25; -40.67; 27.36; 232.22; -52.33; 79.88; 63.707; 59.93703; 10.53012; 245.5; 3.8781; 15.0; 23.0; 56.0; 3.706; 47898; 
-3.9994; 4.2116; -9.437; -0.065; -1.456; 0.0682; 4.2415; 11.25; -40.67; 27.36; 232.22; -52.33; 79.88; 63.707; 59.93703; 10.53012; 245.5; 3.8781; 15.0; 23.0; 56.0; 3.706; 48013; 
-5.8349; 4.8908; -5.2057; -0.065; -1.456; 0.0682; 4.2415; 17.35; -45.08; 14.86; 166.03; -43.12; 142.59; 63.707; 59.93703; 10.53012; 245.5; 3.8781; 15.0; 23.0; 56.0; 3.706; 48113; 
-5.8349; 4.8908; -5.2057; -0.5702; -1.2907; 0.0714; 4.2415; 17.35; -45.08; 14.86; 166.03; -43.12; 142.59; 59.878; 59.93703; 10.53012; 245.5; 3.8781; 15.0; 23.0; 56.0; 3.706; 48233; 
-2.1615; 2.245; 0.9385; -0.5702; -1.2907; 0.0714; 6.4685; 17.35; -45.08; 14.86; 166.03; -43.12; 142.59; 59.878; 59.93703; 10.53012; 245.5; 3.8781; 15.0; 23.0; 56.0; 3.706; 48333; 
-2.1615; 2.245; 0.9385; 0.9262; 3.1336; 0.3059; 6.4685; 17.55; -45.78; 10.19; 166.03; -43.12; 142.59; 59.878; 59.93703; 10.53012; 245.5; 3.8781; 15.0; 23.0; 56.0; 3.706; 48436; 
-6.1172; 4.7665; -5.2803; 0.9262; 3.1336; 0.3059; 5.3622; 17.55; -45.78; 10.19; 166.03; -43.12; 142.59; 72.796; 59.93703; 10.53012; 245.5; 3.8781; 15.0; 23.0; 56.0; 3.706; 48536; 
-6.1172; 4.7665; -5.2803; 0.3826; -0.2995; 0.6843; 5.3622; 3.65; -38.97; 32.85; 218.49; -31.94; 149.04; 72.796; 59.93703; 10.53012; 245.5; 3.8781; 15.0; 23.0; 56.0; 3.706; 48670; 
-15.8951; 8.7316; -13.3723; 0.3826; -0.2995; 0.6843; 4.2915; 3.65; -38.97; 32.85; 218.49; -31.94; 149.04; 72.796; 59.937027; 10.529883; 245.8; 3.69045; 15.0; 23.0; 56.0; 3.706; 48830; 
-1.7294; 8.6809; -9.7064; 0.4359; -0.793; 0.2686; 4.2915; 7.25; -44.58; 22.79; 218.49; -31.94; 149.04; 64.589; 59.937027; 10.529883; 245.8; 3.69045; 15.0; 23.0; 56.0; 3.706; 48941; 
-1.7294; 8.6809; -9.7064; 0.4359; -0.793; 0.2686; 4.2915; 7.25; -44.58; 22.79; 218.49; -31.94; 149.04; 64.589; 59.937027; 10.529883; 245.8; 3.69045; 15.0; 23.0; 56.0; 3.706; 49043; 
-1.9789; 6.6122; -2.1962; -1.8375; -0.3091; 0.1812; 6.4685; 7.25; -44.58; 22.79; 218.49; -31.94; 149.04; 64.589; 59.937027; 10.529883; 245.8; 3.69045; 15.0; 23.0; 56.0; 3.706; 49143; 
-1.9789; 6.6122; -2.1962; -1.8375; -0.3091; 0.1812; 6.4685; 9.05; -50.08; 2.27; 171.57; -44.95; 131.02; 64.589; 59.937027; 10.529883; 245.8; 3.69045; 15.0; 23.0; 56.0; 3.706; 49243; 
-2.4762; 6.0768; 1.2785; -0.5862; -0.0885; -0.2153; 12.0403; 9.05; -50.08; 2.27; 171.57; -44.95; 131.02; 59.222; 59.937027; 10.529883; 245.8; 3.69045; 15.0; 23.0; 56.0; 3.706; 49369; 
-2.4762; 6.0768; 1.2785; 2.3481; 0.8601; 0.129; 12.0403; 10.55; -48.08; 10.09; 171.57; -44.95; 131.02; 59.222; 59.937027; 10.529883; 245.8; 3.69045; 15.0; 23.0; 56.0; 3.706; 49475; 
-0.4673; 3.71; -2.4824; 2.3481; 0.8601; 0.129; 12.0403; 10.55; -48.08; 10.09; 171.57; -44.95; 131.02; 59.222; 59.937027; 10.529883; 245.8; 3.69045; 15.0; 23.0; 56.0; 3.706; 49576; 
-0.4673; 3.71; -2.4824; 0.8868; 1.7981; -0.7003; 8.1776; 10.55; -48.08; 10.09; 171.57; -44.95; 131.02; 70.094; 59.937027; 10.529883; 245.8; 3.69045; 15.0; 23.0; 56.0; 3.706; 49676; 
-7.0822; 16.0859; -9.1368; 0.8868; 1.7981; -0.7003; 8.1776; 10.65; -38.17; 31.73; 257.05; -57.15; 100.11; 70.094; 59.937027; 10.529883; 245.8; 3.69045; 15.0; 23.0; 56.0; 3.706; 49802; 
-7.0822; 16.0859; -9.1368; 0.3016; 0.2078; -0.0266; 8.1776; 10.65; -38.17; 31.73; 257.05; -57.15; 100.11; 70.094; 59.937027; 10.529883; 245.8; 3.69045; 15.0; 23.0; 56.0; 3.706; 49909; 
-5.74; 5.2273; -10.2251; 0.3016; 0.2078; -0.0266; 6.1002; 10.65; -38.17; 31.73; 257.05; -57.15; 100.11; 66.806; 59.937027; 10.529883; 245.8; 3.69045; 15.0; 23.0; 56.0; 3.706; 50009; 
-5.74; 5.2273; -10.2251; -0.8015; -1.2065; 0.2409; 6.1002; 15.45; -44.88; 18.32; 257.05; -57.15; 100.11; 66.806; 59.937027; 10.529883; 245.8; 3.69045; 15.0; 23.0; 56.0; 3.706; 50126; 
-5.3009; 5.55; -3.881; -0.8015; -1.2065; 0.2409; 8.9816; 15.45; -44.88; 18.32; 257.05; -57.15; 100.11; 66.806; 59.937027; 10.529883; 245.8; 3.69045; 15.0; 23.0; 56.0; 3.706; 50227; 
-5.3009; 5.55; -3.881; -0.0565; -0.2238; 0.0629; 8.9816; 17.65; -46.88; 5.42; 175.04; -48.47; 110.11; 57.54; 59.937027; 10.529883; 245.8; 3.69045; 15.0; 23.0; 56.0; 3.706; 50360; 
0.3052; 2.0651; 0.0817; -0.0565; -0.2238; 0.0629; 12.0403; 17.65; -46.88; 5.42; 175.04; -48.47; 110.11; 57.54; 59.937027; 10.529883; 245.8; 3.69045; 15.0; 23.0; 56.0; 3.706; 50473; 
0.3052; 2.0651; 0.0817; 1.4282; 1.8375; 1.0914; 12.0403; 17.65; -46.88; 5.42; 175.04; -48.47; 110.11; 57.54; 59.937027; 10.529883; 245.8; 3.69045; 15.0; 23.0; 56.0; 3.706; 50573; 
-7.5027; 8.9575; -7.2577; 1.4282; 1.8375; 1.0914; 12.0403; 3.75; -44.68; 24.11; 175.04; -48.47; 110.11; 71.172; 59.937027; 10.529883; 245.8; 3.69045; 15.0; 23.0; 56.0; 3.706; 50673; 
-7.5027; 8.9575; -7.2577; 1.5135; -0.0075; 0.0128; 5.2997; 3.75; -44.68; 24.11; 175.04; -48.47; 110.11; 71.172; 59.937027; 10.529883; 245.8; 3.69045; 15.0; 23.0; 56.0; 3.706; 50778; 
-4.0151; 9.1071; -9.5084; 1.5135; -0.0075; 0.0128; 5.2997; 4.95; -41.98; 29.19; 225.31; -45.1; 149.92; 71.172; 59.937027; 10.529883; 245.8; 3.69045; 15.0; 23.0; 56.0; 3.706; 50890; 
-4.0151; 9.1071; -9.5084; -3.9607; -0.8516; -1.0584; 10.4602; 4.95; -41.98; 29.19; 225.31; -45.1; 149.92; 71.172; 59.937027; 10.529883; 245.8; 3.69045; 15.0; 23.0; 56.0; 3.706; 50992; 
-2.9243; 6.9295; -5.2827; -3.9607; -0.8516; -1.0584; 10.4602; 4.95; -41.98; 29.19; 225.31; -45.1; 149.92; 66.227; 59.937027; 10.529883; 245.8; 3.69045; 15.0; 23.0; 56.0; 3.706; 51092; 
-2.9243; 6.9295; -5.2827; -0.5862; -0.1002; -0.1428; 10.4602; 16.45; -47.88; 4.71; 225.31; -45.1; 149.92; 66.227; 59.937027; 10.529883; 245.8; 3.69045; 15.0; 23.0; 56.0; 3.706; 51196; 
-0.5558; 2.1771; 0.2684; -0.5862; -0.1002; -0.1428; 16.7182; 16.45; -47.88; 4.71; 225.31; -45.1; 149.92; 66.227; 59.937027; 10.529883; 245.8; 3.69045; 15.0; 23.0; 56.0; 3.706; 51296; 
-0.5558; 2.1771; 0.2684; 2.5623; 0.922; 0.4434; 16.7182; 16.45; -47.88; 4.71; 225.31; -45.1; 149.92; 71.882; 59.937027; 10.529883; 245.8; 3.69045; 15.0; 23.0; 56.0; 3.706; 51396; 
-5.356; 12.0654; -8.3237; 2.5623; 0.922; 0.4434; 16.7182; 12.25; -40.37; 27.06; 246.51; -50.28; 114.89; 71.882; 59.937027; 10.529883; 245.8; 3.69045; 15.0; 23.0; 56.0; 3.706; 51496; 
-5.356; 12.0654; -8.3237; 0.664; 0.9369; -0.2803; 5.8208; 12.25; -40.37; 27.06; 246.51; -50.28; 114.89; 71.882; 59.937027; 10.529883; 245.8; 3.69045; 15.0; 23.0; 56.0; 3.706; 51596; 
-8.08; 8.8114; -12.1935; 0.664; 0.9369; -0.2803; 5.8208; 12.25; -40.37; 27.06; 246.51; -50.28; 114.89; 71.882; 59.937027; 10.529883; 245.8; 3.69045; 15.0; 23.0; 56.0; 3.706; 51696; 
-8.08; 8.8114; -12.1935; -2.5889; -2.3108; -0.372; 8.0823; 15.65; -41.18; 25.53; 246.51; -50.28; 114.89; 64.825; 59.937073; 10.5297; 245.8; 4.2534; 15.0; 23.0; 56.0; 3.706; 51827; 
-5.2198; 4.432; -4.5112; -2.5889; -2.3108; -0.372; 8.0823; 15.65; -41.18; 25.53; 246.51; -50.28; 114.89; 64.825; 59.937073; 10.5297; 245.8; 4.2534; 15.0; 23.0; 56.0; 3.706; 51928; 
-5.2198; 4.432; -4.5112; -0.9891; -1.5902; 0.1514; 8.0823; 20.25; -45.98; 7.96; 175.92; -44.47; 115.17; 64.825; 59.937073; 10.5297; 245.8; 4.2534; 15.0; 23.0; 56.0; 3.706; 52029; 
-6.3487; 5.0477; -0.8745; -0.9891; -1.5902; 0.1514; 20.8893; 20.25; -45.98; 7.96; 175.92; -44.47; 115.17; 61.376; 59.937073; 10.5297; 245.8; 4.2534; 15.0; 23.0; 56.0; 3.706; 52129; 
-6.3487; 5.0477; -0.8745; -0.0341; -0.2761; 0.3166; 20.8893; 20.25; -45.98; 7.96; 175.92; -44.47; 115.17; 61.376; 59.937073; 10.5297; 245.8; 4.2534; 15.0; 23.0; 56.0; 3.706; 52237; 
-4.4838; 4.2509; 1.7379; -0.0341; -0.2761; 0.3166; 18.7976; 18.15; -46.68; 1.66; 175.92; -44.47; 115.17; 61.376; 59.937073; 10.5297; 245.8; 4.2534; 15.0; 23.0; 56.0; 3.706; 52337; 
-4.4838; 4.2509; 1.7379; 0.6672; 2.1925; 0.1236; 18.7976; 18.15; -46.68; 1.66; 175.92; -44.47; 115.17; 65.986; 59.937073; 10.5297; 245.8; 4.2534; 15.0; 23.0; 56.0; 3.706; 52437; 
-4.7299; 2.1188; -3.5533; 0.6672; 2.1925; 0.1236; 4.998; 11.35; -44.68; 20.35; 224.88; -50.16; 96.16; 65.986; 59.937073; 10.5297; 245.8; 4.2534; 15.0; 23.0; 56.0; 3.706; 52556; 
-4.7299; 2.1188; -3.5533; 0.6992; 0.3293; 0.777; 4.998; 11.35; -44.68; 20.35; 224.88; -50.16; 96.16; 65.986; 59.937073; 10.5297; 245.8; 4.2534; 15.0; 23.0; 56.0; 3.706; 52661; 
-15.2781; 12.7616; -10.0637; 0.6992; 0.3293; 0.777; 4.998; 0.95; -44.98; 24.21; 224.88; -50.16; 96.16; 65.986; 59.937073; 10.5297; 245.8; 4.2534; 15.0; 23.0; 56.0; 3.706; 52806; 
-3.3116; 8.8011; -6.3633; 0.2835; 0.5542; -0.1013; 4.998; 0.95; -44.98; 24.21; 224.88; -50.16; 96.16; 71.787; 59.937073; 10.5297; 245.8; 4.2534; 15.0; 23.0; 56.0; 3.706; 52943; 
-3.3116; 8.8011; -6.3633; -1.2119; -0.3208; -0.1524; 4.998; 8.05; -49.58; 9.38; 178.28; -46.55; 142.03; 71.787; 59.937073; 10.5297; 245.8; 4.2534; 15.0; 23.0; 56.0; 3.706; 53070; 
-2.2564; 6.5207; -1.8617; -1.2119; -0.3208; -0.1524; 4.998; 8.05; -49.58; 9.38; 178.28; -46.55; 142.03; 60.432; 59.937073; 10.5297; 245.8; 4.2534; 15.0; 23.0; 56.0; 3.706; 53171; 
-2.2564; 6.5207; -1.8617; -0.9518; 0.1343; -0.3922; 4.998; 8.05; -49.58; 9.38; 178.28; -46.55; 142.03; 60.432; 59.937073; 10.5297; 245.8; 4.2534; 15.0; 23.0; 56.0; 3.706; 53283; 
-2.9086; 6.0624; 1.6621; -0.9518; 0.1343; -0.3922; 4.8821; 13.05; -48.28; -3.32; 178.28; -46.55; 142.03; 60.432; 59.937073; 10.5297; 245.8; 4.2534; 15.0; 23.0; 56.0; 3.706; 53402; 
-2.9086; 6.0624; 1.6621; 2.5197; 0.906; 0.0885; 4.8821; 13.05; -48.28; -3.32; 178.28; -46.55; 142.03; 53.599; 59.937073; 10.5297; 245.8; 4.2534; 15.0; 23.0; 56.0; 3.706; 53502; 
0.939; 2.8622; -2.2847; 2.5197; 0.906; 0.0885; 4.8821; 13.35; -39.77; 26.34; 249.02; -55.71; 96.86; 53.599; 59.937073; 10.5297; 245.8; 4.2534; 15.0; 23.0; 56.0; 3.706; 53621; 
0.939; 2.8622; -2.2847; 1.4123; 2.5516; 0.1077; 4.8821; 13.35; -39.77; 26.34; 249.02; -55.71; 96.86; 53.599; 59.937073; 10.5297; 245.8; 4.2534; 15.0; 23.0; 56.0; 3.706; 53721; 
-6.8783; 16.0933; -8.5267; 1.4123; 2.5516; 0.1077; 4.8821; 13.35; -39.77; 26.34; 249.02; -55.71; 96.86; 53.599; 59.937073; 10.5297; 245.8; 4.2534; 15.0; 23.0; 56.0; 3.706; 53829; 
-6.8783; 16.0933; -8.5267; -2.7669; -0.8697; -0.8644; 4.8252; 11.85; -40.87; 25.63; 249.02; -55.71; 96.86; 72.347; 59.937073; 10.5297; 245.8; 4.2534; 15.0; 23.0; 56.0; 3.706; 53929; 
-7.5777; 4.0551; -10.0444; -2.7669; -0.8697; -0.8644; 4.8252; 11.85; -40.87; 25.63; 249.02; -55.71; 96.86; 72.347; 59.937073; 10.5297; 245.8; 4.2534; 15.0; 23.0; 56.0; 3.706; 54029; 
-7.5777; 4.0551; -10.0444; -0.761; -1.4197; 0.2771; 4.8252; 11.85; -40.87; 25.63; 249.02; -55.71; 96.86; 72.347; 59.937073; 10.5297; 245.8; 4.2534; 15.0; 23.0; 56.0; 3.706; 54129; 
-5.0373; 4.9542; -4.8861; -0.761; -1.4197; 0.2771; 4.8821; 16.45; -45.48; 13.24; 184.92; -43.96; 124.76; 65.772; 59.937073; 10.5297; 245.8; 4.2534; 15.0; 23.0; 56.0; 3.706; 54229; 
-5.0373; 4.9542; -4.8861; -0.1407; -0.9838; 0.1268; 4.8821; 16.45; -45.48; 13.24; 184.92; -43.96; 124.76; 65.772; 59.937073; 10.5297; 245.8; 4.2534; 15.0; 23.0; 56.0; 3.706; 54344; 
-2.6284; 2.0714; 0.6854; -0.1407; -0.9838; 0.1268; 4.8821; 16.45; -45.98; 11.11; 184.92; -43.96; 124.76; 65.772; 59.937073; 10.5297; 245.8; 4.2534; 15.0; 23.0; 56.0; 3.706; 54445; 
-2.6284; 2.0714; 0.6854; 1.7981; 2.5506; 1.1117; 4.8821; 16.45; -45.98; 11.11; 184.92; -43.96; 124.76; 71.555; 59.937073; 10.5297; 245.8; 4.2534; 15.0; 23.0; 56.0; 3.706; 54545; 
-5.5883; 7.277; -5.4452; 1.7981; 2.5506; 1.1117; 4.8821; 16.45; -45.98; 11.11; 184.92; -43.96; 124.76; 71.555; 59.937073; 10.5297; 245.8; 4.2534; 15.0; 23.0; 56.0; 3.706; 54645; 
-5.5883; 7.277; -5.4452; 1.5689; -0.4317; 0.324; 4.6585; 3.45; -43.28; 27.06; 233.23; -48.45; 121.78; 71.555; 59.937073; 10.5297; 245.8; 4.2534; 15.0; 23.0; 56.0; 3.706; 54762; 
-14.246; 13.3994; -12.1016; 1.5689; -0.4317; 0.324; 4.6585; 3.45; -43.28; 27.06; 233.23; -48.45; 121.78; 71.555; 59.937096; 10.529425; 245.8; 5.004; 15.0; 23.0; 56.0; 3.706; 54883; 
-14.246; 13.3994; -12.1016; -0.9092; -0.6534; 0.3613; 4.4975; 3.45; -43.28; 27.06; 233.23; -48.45; 121.78; 66.968; 59.937096; 10.529425; 245.8; 5.004; 15.0; 23.0; 56.0; 3.706; 54984; 
-1.7753; 8.9888; -5.5653; -0.9092; -0.6534; 0.3613; 4.4975; 7.85; -47.88; 16.79; 233.23; -48.45; 121.78; 66.968; 59.937096; 10.529425; 245.8; 5.004; 15.0; 23.0; 56.0; 3.706; 55086; 
-1.7753; 8.9888; -5.5653; -1.5178; -0.0746; -0.6107; 4.192; 7.85; -47.88; 16.79; 233.23; -48.45; 121.78; 66.968; 59.937096; 10.529425; 245.8; 5.004; 15.0; 23.0; 56.0; 3.706; 55196; 
-2.6555; 5.6262; -0.2555; -1.5178; -0.0746; -0.6107; 4.192; 12.75; -49.08; -0.58; 160.83; -46.89; 131.29; 57.372; 59.937096; 10.529425; 245.8; 5.004; 15.0; 23.0; 56.0; 3.706; 55318; 
-2.6555; 5.6262; -0.2555; 0.3709; 0.2569; -0.3443; 4.192; 12.75; -49.08; -0.58; 160.83; -46.89; 131.29; 57.372; 59.937096; 10.529425; 245.8; 5.004; 15.0; 23.0; 56.0; 3.706; 55418; 
-1.0653; 3.4598; 0.3622; 0.3709; 0.2569; -0.3443; 4.1432; 12.75; -49.08; -0.58; 160.83; -46.89; 131.29; 57.372; 59.937096; 10.529425; 245.8; 5.004; 15.0; 23.0; 56.0; 3.706; 55541; 
-8.182; 14.2507; -3.4704; 1.9132; 0.8239; -0.8047; 4.1432; 17.05; -45.28; 12.32; 160.83; -46.89; 131.29; 70.623; 59.937096; 10.529425; 245.8; 5.004; 15.0; 23.0; 56.0; 3.706; 55658; 
-8.182; 14.2507; -3.4704; 1.9132; 0.8239; -0.8047; 4.1432; 17.05; -45.28; 12.32; 160.83; -46.89; 131.29; 70.623; 59.937096; 10.529425; 245.8; 5.004; 15.0; 23.0; 56.0; 3.706; 55774; 
-4.6917; 6.2027; -6.4552; 0.6406; -0.0458; 0.4135; 4.1432; 10.95; -42.38; 25.33; 219.18; -46.25; 138.43; 70.623; 59.937096; 10.529425; 245.8; 5.004; 15.0; 23.0; 56.0; 3.706; 55902; 
-4.6917; 6.2027; -6.4552; -0.2014; -0.6619; 0.2974; 4.1432; 10.95; -42.38; 25.33; 219.18; -46.25; 138.43; 59.992; 59.937096; 10.529425; 245.8; 5.004; 15.0; 23.0; 56.0; 3.706; 56014; 
-4.6092; 4.1579; -4.3357; -0.2014; -0.6619; 0.2974; 4.1432; 10.95; -42.38; 25.33; 219.18; -46.25; 138.43; 59.992; 59.937096; 10.529425; 245.8; 5.004; 15.0; 23.0; 56.0; 3.706; 56114; 
-4.6092; 4.1579; -4.3357; 0.2441; -0.1844; 0.2483; 4.1432; 13.05; -44.48; 19.54; 219.18; -46.25; 138.43; 59.992; 59.937096; 10.529425; 245.8; 5.004; 15.0; 23.0; 56.0; 3.706; 56249; 
-4.6171; 3.5584; -2.5597; 0.2441; -0.1844; 0.2483; 4.1432; 13.05; -44.48; 19.54; 219.18; -46.25; 138.43; 55.909; 59.937096; 10.529425; 245.8; 5.004; 15.0; 23.0; 56.0; 3.706; 56349; 
-4.6171; 3.5584; -2.5597; -0.5521; 0.0256; 0.1247; 4.1432; 9.65; -44.38; 23.19; 221.84; -47.23; 126.76; 55.909; 59.937096; 10.529425; 245.8; 5.004; 15.0; 23.0; 56.0; 3.706; 56457; 
-10.9361; 13.2695; -4.9507; -0.5521; 0.0256; 0.1247; 4.1432; 9.65; -44.38; 23.19; 221.84; -47.23; 126.76; 55.909; 59.937096; 10.529425; 245.8; 5.004; 15.0; 23.0; 56.0; 3.706; 56557; 
-10.9361; 13.2695; -4.9507; -1.1533; -0.0064; -0.1236; 4.1432; 9.65; -44.38; 23.19; 221.84; -47.23; 126.76; 55.909; 59.937096; 10.529425; 245.8; 5.004; 15.0; 23.0; 56.0; 3.706; 56657; 
-4.5441; 7.5674; -3.6123; -1.1533; -0.0064; -0.1236; 4.1432; 10.05; -48.78; 9.18; 221.84; -47.23; 126.76; 58.149; 59.937096; 10.529425; 245.8; 5.004; 15.0; 23.0; 56.0; 3.706; 56761; 
-4.5441; 7.5674; -3.6123; -1.1117; -0.5148; -0.2334; 4.192; 10.05; -48.78; 9.18; 221.84; -47.23; 126.76; 58.149; 59.937096; 10.529425; 245.8; 5.004; 15.0; 23.0; 56.0; 3.706; 56874; 
-3.0083; 7.0077; 0.5043; -1.1117; -0.5148; -0.2334; 4.192; 12.15; -48.68; -3.63; 157.14; -53.09; 121.3; 58.149; 59.937096; 10.529425; 245.8; 5.004; 15.0; 23.0; 56.0; 3.706; 56994; 
-3.0083; 7.0077; 0.5043; 0.632; 0.4935; 0.2057; 4.192; 12.15; -48.68; -3.63; 157.14; -53.09; 121.3; 52.05; 59.937096; 10.529425; 245.8; 5.004; 15.0; 23.0; 56.0; 3.706; 57094; 
-0.9597; 0.8576; 0.4393; 0.632; 0.4935; 0.2057; 4.192; 12.15; -48.68; -3.63; 157.14; -53.09; 121.3; 52.05; 59.937096; 10.529425; 245.8; 5.004; 15.0; 23.0; 56.0; 3.706; 57196; 
-0.9597; 0.8576; 0.4393; 3.464; 1.57; -0.89; 4.192; 9.85; -39.77; 28.38; 157.14; -53.09; 121.3; 52.05; 59.937096; 10.529425; 245.8; 5.004; 15.0; 23.0; 56.0; 3.706; 57296; 
-4.7743; 9.441; -6.5139; 3.464; 1.57; -0.89; 4.192; 9.85; -39.77; 28.38; 157.14; -53.09; 121.3; 70.438; 59.937096; 10.529425; 245.8; 5.004; 15.0; 23.0; 56.0; 3.706; 57396; 
-4.7743; 9.441; -6.5139; 0.0693; 1.6094; -0.3539; 4.192; 9.85; -39.77; 28.38; 157.14; -53.09; 121.3; 70.438; 59.937096; 10.529425; 245.8; 5.004; 15.0; 23.0; 56.0; 3.706; 57498; 
-2.9739; 10.7611; -11.1686; 0.0693; 1.6094; -0.3539; 4.192; 3.35; -35.47; 36.1; 226.95; -34.38; 159.3; 70.438; 59.937096; 10.529425; 245.8; 5.004; 15.0; 23.0; 56.0; 3.706; 57598; 
-2.9739; 10.7611; -11.1686; -0.9316; -0.745; -0.1759; 4.192; 3.35; -35.47; 36.1; 226.95; -34.38; 159.3; 70.438; 59.937096; 10.529425; 245.8; 5.004; 15.0; 23.0; 56.0; 3.706; 57708; 
-3.7168; 2.3063; -9.826; -0.9316; -0.745; -0.1759; 4.192; 3.35; -35.47; 36.1; 226.95; -34.38; 159.3; 64.191; 59.937096; 10.529425; 245.8; 5.004; 15.0; 23.0; 56.0; 3.706; 57808; 
-3.7168; 2.3063; -9.826; -2.6433; -1.7619; -0.3656; 4.192; 7.75; -36.17; 34.27; 226.95; -34.38; 159.3; 64.191; 59.937122; 10.529168; 246.2; 4.31595; 15.0; 23.0; 56.0; 3.706; 57922; 
-4.1982; 2.8912; -4.4627; -2.6433; -1.7619; -0.3656; 4.192; 7.75; -36.17; 34.27; 226.95; -34.38; 159.3; 64.191; 59.937122; 10.529168; 246.2; 4.31595; 15.0; 23.0; 56.0; 3.706; 58051; 
-4.1982; 2.8912; -4.4627; -0.3262; -1.0818; 0.3667; 4.192; 15.65; -46.38; 9.99; 164.34; -39.69; 143.03; 60.194; 59.937122; 10.529168; 246.2; 4.31595; 15.0; 23.0; 56.0; 3.706; 58157; 
-2.9828; 2.4278; 0.0409; -0.3262; -1.0818; 0.3667; 4.192; 15.65; -46.38; 9.99; 164.34; -39.69; 143.03; 60.194; 59.937122; 10.529168; 246.2; 4.31595; 15.0; 23.0; 56.0; 3.706; 58271; 
-3.7114; 6.8257; -5.4818; 1.8695; 1.7778; 0.988; 4.192; 7.45; -44.28; 21.87; 164.34; -39.69; 143.03; 60.194; 59.937122; 10.529168; 246.2; 4.31595; 15.0; 23.0; 56.0; 3.706; 58409; 
-3.7114; 6.8257; -5.4818; 0.129; -0.0341; 0.4221; 4.192; 7.45; -44.28; 21.87; 164.34; -39.69; 143.03; 71.465; 59.937122; 10.529168; 246.2; 4.31595; 15.0; 23.0; 56.0; 3.706; 58544; 
-10.9511; 14.5095; -10.9294; 0.129; -0.0341; 0.4221; 4.192; -0.95; -42.58; 27.67; 237.85; -50.63; 130.65; 71.465; 59.937122; 10.529168; 246.2; 4.31595; 15.0; 23.0; 56.0; 3.706; 58644; 
-10.9511; 14.5095; -10.9294; -2.153; -1.5071; -0.2345; 4.192; -0.95; -42.58; 27.67; 237.85; -50.63; 130.65; 71.465; 59.937122; 10.529168; 246.2; 4.31595; 15.0; 23.0; 56.0; 3.706; 58752; 
-2.4455; 9.0809; -4.3772; -2.153; -1.5071; -0.2345; 4.192; -0.95; -42.58; 27.67; 237.85; -50.63; 130.65; 61.209; 59.937122; 10.529168; 246.2; 4.31595; 15.0; 23.0; 56.0; 3.706; 58853; 
-2.4455; 9.0809; -4.3772; -1.5092; -0.5638; -0.4583; 4.192; 9.15; -47.98; 13.85; 237.85; -50.63; 130.65; 61.209; 59.937122; 10.529168; 246.2; 4.31595; 15.0; 23.0; 56.0; 3.706; 58965; 
-2.4622; 5.9829; -0.9088; -1.5092; -0.5638; -0.4583; 4.4975; 9.15; -47.98; 13.85; 237.85; -50.63; 130.65; 61.209; 59.937122; 10.529168; 246.2; 4.31595; 15.0; 23.0; 56.0; 3.706; 59065; 
-2.4622; 5.9829; -0.9088; 0.3261; 0.6576; -0.0437; 4.4975; 13.45; -48.58; 4.81; 166.4; -48.61; 134.38; 61.209; 59.937122; 10.529168; 246.2; 4.31595; 15.0; 23.0; 56.0; 3.706; 59182; 
-2.1037; 2.0974; 1.0393; 0.3261; 0.6576; -0.0437; 5.2379; 13.45; -48.58; 4.81; 166.4; -48.61; 134.38; 54.448; 59.937122; 10.529168; 246.2; 4.31595; 15.0; 23.0; 56.0; 3.706; 59282; 
-2.1037; 2.0974; 1.0393; 2.3161; 0.2483; -1.1149; 5.2379; 13.45; -48.58; 4.81; 166.4; -48.61; 134.38; 54.448; 59.937122; 10.529168; 246.2; 4.31595; 15.0; 23.0; 56.0; 3.706; 59387; 
-3.8226; 10.668; -5.1458; 2.3161; 0.2483; -1.1149; 5.2997; 10.15; -42.08; 26.55; 166.4; -48.61; 134.38; 54.448; 59.937122; 10.529168; 246.2; 4.31595; 15.0; 23.0; 56.0; 3.706; 59489; 
-3.8226; 10.668; -5.1458; 0.8932; 2.1413; -0.2547; 5.2997; 10.15; -42.08; 26.55; 166.4; -48.61; 134.38; 72.219; 59.937122; 10.529168; 246.2; 4.31595; 15.0; 23.0; 56.0; 3.706; 59600; 
-6.8406; 9.0089; -9.6218; 0.8932; 2.1413; -0.2547; 5.2997; 10.15; -42.08; 26.55; 166.4; -48.61; 134.38; 72.219; 59.937122; 10.529168; 246.2; 4.31595; 15.0; 23.0; 56.0; 3.706; 59700; 
-6.8406; 9.0089; -9.6218; -1.6084; -2.3331; -0.2835; 4.769; 12.75; -41.68; 26.55; 204.82; -41.54; 143.7; 72.219; 59.937122; 10.529168; 246.2; 4.31595; 15.0; 23.0; 56.0; 3.706; 59802; 
-5.4475; 5.5258; -5.3749; -1.6084; -2.3331; -0.2835; 4.769; 12.75; -41.68; 26.55; 204.82; -41.54; 143.7; 63.359; 59.937122; 10.529168; 246.2; 4.31595; 15.0; 23.0; 56.0; 3.706; 59902; 
-5.4475; 5.5258; -5.3749; -0.8218; -1.5402; -0.453; 4.769; 22.55; -43.28; 11.0; 204.82; -41.54; 143.7; 63.359; 59.937122; 10.529168; 246.2; 4.31595; 15.0; 23.0; 56.0; 3.706; 60003; 
-5.8873; 5.3035; -1.4508; -0.8218; -1.5402; -0.453; 5.6196; 22.55; -43.28; 11.0; 204.82; -41.54; 143.7; 63.359; 59.937122; 10.529168; 246.2; 4.31595; 15.0; 23.0; 56.0; 3.706; 60103; 
-5.8873; 5.3035; -1.4508; -0.0565; -0.6214; 0.1204; 5.6196; 25.15; -42.88; 3.28; 161.72; -43.21; 107.74; 63.359; 59.937122; 10.529168; 246.2; 4.31595; 15.0; 23.0; 56.0; 3.706; 60237; 
-7.1988; 5.261; 0.0873; -0.0565; -0.6214; 0.1204; 10.2178; 25.15; -42.88; 3.28; 161.72; -43.21; 107.74; 55.534; 59.937122; 10.529168; 246.2; 4.31595; 15.0; 23.0; 56.0; 3.706; 60349; 
-7.1988; 5.261; 0.0873; 0.3688; -0.2313; 0.3144; 10.2178; 25.15; -42.88; 3.28; 161.72; -43.21; 107.74; 55.534; 59.937122; 10.529168; 246.2; 4.31595; 15.0; 23.0; 56.0; 3.706; 60452; 
-5.8913; 5.1765; 1.0236; 0.3688; -0.2313; 0.3144; 10.2178; 21.55; -44.18; 3.28; 161.72; -43.21; 107.74; 55.534; 59.937122; 10.529168; 246.2; 4.31595; 15.0; 22.0; 55.0; 3.711; 60552; 
-5.8913; 5.1765; 1.0236; 1.4293; 1.343; 0.0735; 7.4455; 21.55; -44.18; 3.28; 161.72; -43.21; 107.74; 55.027; 59.937122; 10.529168; 246.2; 4.31595; 15.0; 22.0; 55.0; 3.711; 60652; 
-7.0984; 6.075; -3.0445; 1.4293; 1.343; 0.0735; 7.4455; 17.55; -40.77; 23.3; 233.23; -43.91; 87.5; 55.027; 59.937122; 10.529168; 246.2; 4.31595; 15.0; 22.0; 55.0; 3.711; 60799; 
-11.7884; 6.8909; -4.8026; 0.632; 0.2558; 0.6384; 5.9588; 17.55; -40.77; 23.3; 233.23; -43.91; 87.5; 55.027; 59.93715; 10.52889; 245.7; 5.004; 15.0; 22.0; 55.0; 3.711; 60913; 
-11.7884; 6.8909; -4.8026; 0.632; 0.2558; 0.6384; 5.9588; 17.55; -40.77; 23.3; 233.23; -43.91; 87.5; 68.698; 59.93715; 10.52889; 245.7; 5.004; 15.0; 22.0; 55.0; 3.711; 61015; 
-4.9316; 8.4162; -7.3602; -0.0469; 0.323; 0.7141; 8.3716; 11.05; -42.48; 25.63; 233.23; -43.91; 87.5; 68.698; 59.93715; 10.52889; 245.7; 5.004; 15.0; 22.0; 55.0; 3.711; 61149; 
-4.9316; 8.4162; -7.3602; -0.8974; 0.0075; -0.2686; 8.3716; 11.05; -42.48; 25.63; 233.23; -43.91; 87.5; 68.698; 59.93715; 10.52889; 245.7; 5.004; 15.0; 22.0; 55.0; 3.711; 61256; 
-3.0025; 6.4802; -2.323; -0.8974; 0.0075; -0.2686; 8.3716; 12.15; -48.28; 11.0; 195.51; -52.08; 115.43; 57.001; 59.93715; 10.52889; 245.7; 5.004; 15.0; 22.0; 55.0; 3.711; 61356; 
-3.0025; 6.4802; -2.323; -0.4199; -0.1567; -0.3613; 11.2225; 12.15; -48.28; 11.0; 195.51; -52.08; 115.43; 57.001; 59.93715; 10.52889; 245.7; 5.004; 15.0; 22.0; 55.0; 3.711; 61460; 
-4.8688; 7.7823; -0.4697; -0.4199; -0.1567; -0.3613; 11.2225; 14.65; -48.28; 4.5; 195.51; -52.08; 115.43; 57.001; 59.93715; 10.52889; 245.7; 5.004; 15.0; 22.0; 55.0; 3.711; 61573; 
-4.8688; 7.7823; -0.4697; 0.388; -0.1609; -0.2952; 11.2225; 14.65; -48.28; 4.5; 195.51; -52.08; 115.43; 49.249; 59.93715; 10.52889; 245.7; 5.004; 15.0; 22.0; 55.0; 3.711; 61675; 
-3.5115; 6.2282; -0.0156; 0.388; -0.1609; -0.2952; 13.859; 14.65; -48.28; 4.5; 195.51; -52.08; 115.43; 49.249; 59.93715; 10.52889; 245.7; 5.004; 15.0; 22.0; 55.0; 3.711; 61783; 
-3.5115; 6.2282; -0.0156; 0.7429; 0.1652; 0.1641; 13.859; 18.85; -45.98; 9.18; 208.25; -49.86; 93.16; 49.249; 59.93715; 10.52889; 245.7; 5.004; 15.0; 22.0; 55.0; 3.711; 61896; 
-4.7923; 10.7524; -3.3427; 0.7429; 0.1652; 0.1641; 9.8647; 18.85; -45.98; 9.18; 208.25; -49.86; 93.16; 52.173; 59.93715; 10.52889; 245.7; 5.004; 15.0; 22.0; 55.0; 3.711; 61997; 
-4.7923; 10.7524; -3.3427; -0.2825; 0.1034; 0.275; 9.8647; 13.85; -46.48; 14.76; 208.25; -49.86; 93.16; 52.173; 59.93715; 10.52889; 245.7; 5.004; 15.0; 22.0; 55.0; 3.711; 62138; 
-6.5233; 8.3353; -3.3196; -0.2825; 0.1034; 0.275; 9.8647; 13.85; -46.48; 14.76; 208.25; -49.86; 93.16; 52.173; 59.93715; 10.52889; 245.7; 5.004; 15.0; 22.0; 55.0; 3.711; 62239; 
-6.5233; 8.3353; -3.3196; -0.7727; -0.1077; -0.2899; 8.9816; 13.85; -46.48; 14.76; 208.25; -49.86; 93.16; 52.508; 59.93715; 10.52889; 245.7; 5.004; 15.0; 22.0; 55.0; 3.711; 62339; 
-5.5886; 6.2973; -0.9396; -0.7727; -0.1077; -0.2899; 8.9816; 16.85; -46.98; 5.42; 167.57; -53.37; 116.45; 52.508; 59.93715; 10.52889; 245.7; 5.004; 15.0; 22.0; 55.0; 3.711; 62439; 
-5.5886; 6.2973; -0.9396; 0.9124; 0.5308; 0.1268; 4.0; 16.85; -46.98; 5.42; 167.57; -53.37; 116.45; 52.508; 59.93715; 10.52889; 245.7; 5.004; 15.0; 22.0; 55.0; 3.711; 62539; 
-1.7738; 3.1039; -0.6434; 0.9124; 0.5308; 0.1268; 4.0; 16.85; -46.98; 5.42; 167.57; -53.37; 116.45; 52.508; 59.93715; 10.52889; 245.7; 5.004; 15.0; 22.0; 55.0; 3.711; 62639; 
-1.7738; 3.1039; -0.6434; 1.1618; 1.1554; 0.3198; 4.0; 15.15; -42.48; 22.89; 167.57; -53.37; 116.45; 68.712; 59.93715; 10.52889; 245.7; 5.004; 15.0; 22.0; 55.0; 3.711; 62752; 
-7.7209; 6.4249; -4.3753; 1.1618; 1.1554; 0.3198; 4.0; 15.15; -42.48; 22.89; 167.57; -53.37; 116.45; 68.712; 59.93715; 10.52889; 245.7; 5.004; 15.0; 22.0; 55.0; 3.711; 62852; 
-7.7209; 6.4249; -4.3753; -0.5148; 0.1663; 0.3986; 4.0; 4.25; -37.57; 34.07; 243.91; -51.18; 100.27; 68.712; 59.93715; 10.52889; 245.7; 5.004; 15.0; 22.0; 55.0; 3.711; 62990; 
-8.4263; 7.7781; -8.8976; -0.5148; 0.1663; 0.3986; 4.0; 4.25; -37.57; 34.07; 243.91; -51.18; 100.27; 54.969; 59.93715; 10.52889; 245.7; 5.004; 15.0; 22.0; 55.0; 3.711; 63090; 
-8.4263; 7.7781; -8.8976; -1.0243; -1.0712; -0.3741; 4.0; 4.25; -37.57; 34.07; 243.91; -51.18; 100.27; 54.969; 59.93715; 10.52889; 245.7; 5.004; 15.0; 22.0; 55.0; 3.711; 63190; 
-3.6386; 8.1032; -7.0896; -1.0243; -1.0712; -0.3741; 4.0; 10.15; -43.68; 23.91; 243.91; -51.18; 100.27; 54.969; 59.93715; 10.52889; 245.7; 5.004; 15.0; 22.0; 55.0; 3.711; 63290; 
-3.6386; 8.1032; -7.0896; -1.586; -0.3944; 0.1471; 4.0; 10.15; -43.68; 23.91; 243.91; -51.18; 100.27; 54.969; 59.93715; 10.52889; 245.7; 5.004; 15.0; 22.0; 55.0; 3.711; 63390; 
-2.8582; 6.2377; -1.8395; -1.586; -0.3944; 0.1471; 4.0; 10.05; -49.48; 3.49; 179.02; -55.99; 108.46; 52.681; 59.93715; 10.52889; 245.7; 5.004; 15.0; 22.0; 55.0; 3.711; 63538; 
-4.4251; 7.6738; 0.6113; -0.5883; -0.1684; 0.0533; 4.0; 10.05; -49.48; 3.49; 179.02; -55.99; 108.46; 52.681; 59.93715; 10.52889; 245.7; 5.004; 15.0; 22.0; 55.0; 3.711; 63668; 
-4.4251; 7.6738; 0.6113; -0.5883; -0.1684; 0.0533; 4.0; 10.05; -49.48; 3.49; 179.02; -55.99; 108.46; 48.576; 59.937183; 10.528616; 247.8; 4.19085; 15.0; 22.0; 55.0; 3.711; 63785; 
-3.2204; 7.3053; 0.466; 0.6736; -0.2142; -0.3667; 4.0; 11.75; -49.18; 2.98; 179.02; -55.99; 108.46; 48.576; 59.937183; 10.528616; 247.8; 4.19085; 15.0; 22.0; 55.0; 3.711; 63899; 
-3.2204; 7.3053; 0.466; 1.4357; 0.4807; -0.2441; 4.0; 11.75; -49.18; 2.98; 179.02; -55.99; 108.46; 48.576; 59.937183; 10.528616; 247.8; 4.19085; 15.0; 22.0; 55.0; 3.711; 64036; 
-5.5746; 11.2085; -3.1551; 1.4357; 0.4807; -0.2441; 4.0; 14.85; -44.18; 19.94; 240.09; -55.84; 97.06; 51.462; 59.937183; 10.528616; 247.8; 4.19085; 15.0; 22.0; 55.0; 3.711; 64137; 
-5.5746; 11.2085; -3.1551; -0.3869; 0.2888; -0.0842; 4.0; 14.85; -44.18; 19.94; 240.09; -55.84; 97.06; 51.462; 59.937183; 10.528616; 247.8; 4.19085; 15.0; 22.0; 55.0; 3.711; 64238; 
-7.1533; 6.6176; -6.508; -0.3869; 0.2888; -0.0842; 4.0; 13.95; -45.38; 17.61; 240.09; -55.84; 97.06; 51.462; 59.937183; 10.528616; 247.8; 4.19085; 15.0; 22.0; 55.0; 3.711; 64338; 
-7.1533; 6.6176; -6.508; -0.728; -0.5574; -0.2782; 4.0; 13.95; -45.38; 17.61; 240.09; -55.84; 97.06; 51.462; 59.937183; 10.528616; 247.8; 4.19085; 15.0; 22.0; 55.0; 3.711; 64438; 
-4.936; 4.9111; -1.8331; -0.728; -0.5574; -0.2782; 4.0; 13.95; -45.38; 17.61; 240.09; -55.84; 97.06; 52.006; 59.937183; 10.528616; 247.8; 4.19085; 15.0; 22.0; 55.0; 3.711; 64539; 
-4.936; 4.9111; -1.8331; 0.8271; 1.052; -0.0799; 4.0; 17.55; -44.58; 16.29; 190.4; -49.53; 126.85; 52.006; 59.937183; 10.528616; 247.8; 4.19085; 15.0; 22.0; 55.0; 3.711; 64653; 
-2.7495; 1.0605; -0.8722; 0.8271; 1.052; -0.0799; 4.0; 17.55; -44.58; 16.29; 190.4; -49.53; 126.85; 52.006; 59.937183; 10.528616; 247.8; 4.19085; 15.0; 22.0; 55.0; 3.711; 64762; 
-2.7495; 1.0605; -0.8722; 0.5628; 1.942; 0.8431; 4.0; 17.55; -44.58; 16.29; 190.4; -49.53; 126.85; 70.069; 59.937183; 10.528616; 247.8; 4.19085; 15.0; 22.0; 55.0; 3.711; 64863; 
-10.6698; 9.0864; -6.0251; 0.5628; 1.942; 0.8431; 4.0; 3.15; -39.17; 31.93; 190.4; -49.53; 126.85; 70.069; 59.937183; 10.528616; 247.8; 4.19085; 15.0; 22.0; 55.0; 3.711; 64964; 
-10.6698; 9.0864; -6.0251; -2.1711; -0.971; -0.453; 4.0; 3.15; -39.17; 31.93; 190.4; -49.53; 126.85; 70.069; 59.937183; 10.528616; 247.8; 4.19085; 15.0; 22.0; 55.0; 3.711; 65064; 
-2.3777; 7.9477; -6.7462; -2.1711; -0.971; -0.453; 4.0; 8.15; -44.18; 31.22; 237.04; -45.48; 122.65; 70.069; 59.937183; 10.528616; 247.8; 4.19085; 15.0; 22.0; 55.0; 3.711; 65164; 
-2.3777; 7.9477; -6.7462; -1.4453; -0.8825; -0.5031; 4.0; 8.15; -44.18; 31.22; 237.04; -45.48; 122.65; 59.353; 59.937183; 10.528616; 247.8; 4.19085; 15.0; 22.0; 55.0; 3.711; 65270; 
-2.2405; 6.7725; -3.218; -1.4453; -0.8825; -0.5031; 4.0; 8.15; -44.18; 31.22; 237.04; -45.48; 122.65; 59.353; 59.937183; 10.528616; 247.8; 4.19085; 15.0; 22.0; 55.0; 3.711; 65371; 
-2.2405; 6.7725; -3.218; -0.6768; -0.3592; -0.2302; 4.0; 10.75; -49.08; 12.32; 237.04; -45.48; 122.65; 59.353; 59.937183; 10.528616; 247.8; 4.19085; 15.0; 22.0; 55.0; 3.711; 65474; 
-3.3125; 7.1378; -0.8628; -0.6768; -0.3592; -0.2302; 4.0; 10.75; -49.08; 12.32; 237.04; -45.48; 122.65; 50.368; 59.937183; 10.528616; 247.8; 4.19085; 15.0; 22.0; 55.0; 3.711; 65574; 
-3.3125; 7.1378; -0.8628; 0.4445; -0.113; -0.4978; 4.0; 15.65; -47.78; 9.68; 204.64; -56.17; 105.48; 50.368; 59.937183; 10.528616; 247.8; 4.19085; 15.0; 22.0; 55.0; 3.711; 65701; 
-2.9138; 7.5133; -0.6803; 0.4445; -0.113; -0.4978; 4.0; 15.65; -47.78; 9.68; 204.64; -56.17; 105.48; 50.368; 59.937183; 10.528616; 247.8; 4.19085; 15.0; 22.0; 55.0; 3.711; 65801; 
-2.9138; 7.5133; -0.6803; 0.5169; -0.0053; 0.1503; 4.0; 15.65; -47.78; 9.68; 204.64; -56.17; 105.48; 51.047; 59.937183; 10.528616; 247.8; 4.19085; 15.0; 22.0; 55.0; 3.711; 65901; 
-7.3987; 10.5087; -3.2068; 0.5169; -0.0053; 0.1503; 4.0; 19.65; -45.48; 14.36; 204.64; -56.17; 105.48; 51.047; 59.937183; 10.528616; 247.8; 4.19085; 15.0; 22.0; 55.0; 3.711; 66001; 
-7.3987; 10.5087; -3.2068; -0.065; -0.4199; 0.064; 4.0; 19.65; -45.48; 14.36; 204.64; -56.17; 105.48; 51.047; 59.937183; 10.528616; 247.8; 4.19085; 15.0; 22.0; 55.0; 3.711; 66128; 
-5.9932; 7.0385; -2.5056; -0.065; -0.4199; 0.064; 4.0; 17.65; -46.58; 7.55; 185.05; -51.22; 110.33; 51.047; 59.937183; 10.528616; 247.8; 4.19085; 15.0; 22.0; 55.0; 3.711; 66248; 
-5.9932; 7.0385; -2.5056; 0.0586; -0.226; -0.1919; 4.0; 17.65; -46.58; 7.55; 185.05; -51.22; 110.33; 49.962; 59.937183; 10.528616; 247.8; 4.19085; 15.0; 22.0; 55.0; 3.711; 66349; 
-4.1304; 2.9736; 0.081; 0.0586; -0.226; -0.1919; 4.0; 17.65; -46.58; 7.55; 185.05; -51.22; 110.33; 49.962; 59.937183; 10.528616; 247.8; 4.19085; 15.0; 22.0; 55.0; 3.711; 66450; 
-4.1304; 2.9736; 0.081; 1.8354; 1.0307; -0.0927; 4.0; 19.05; -40.27; 23.5; 185.05; -51.22; 110.33; 49.962; 59.937183; 10.528616; 247.8; 4.19085; 15.0; 22.0; 55.0; 3.711; 66550; 
-5.196; 5.6528; -7.5701; 1.8354; 1.0307; -0.0927; 4.0; 19.05; -40.27; 23.5; 185.05; -51.22; 110.33; 70.837; 59.937183; 10.528616; 247.8; 4.19085; 15.0; 22.0; 55.0; 3.711; 66650; 
-5.196; 5.6528; -7.5701; -0.2185; 0.3336; 1.0605; 4.0; 19.05; -40.27; 23.5; 185.05; -51.22; 110.33; 70.837; 59.937183; 10.528616; 247.8; 4.19085; 15.0; 22.0; 55.0; 3.711; 66760; 
-10.1962; 12.0934; -11.373; -0.2185; 0.3336; 1.0605; 4.0; 4.05; -39.57; 32.34; 234.58; -44.44; 99.96; 70.837; 59.937202; 10.528411; 248.7; 4.0032; 15.0; 22.0; 55.0; 3.711; 66884; 
-10.1962; 12.0934; -11.373; -0.7536; -1.133; -0.7504; 4.0; 4.05; -39.57; 32.34; 234.58; -44.44; 99.96; 65.415; 59.937202; 10.528411; 248.7; 4.0032; 15.0; 22.0; 55.0; 3.711; 66984; 
-2.3793; 8.1944; -4.5992; -0.7536; -1.133; -0.7504; 4.0; 9.75; -48.78; 14.05; 234.58; -44.44; 99.96; 65.415; 59.937202; 10.528411; 248.7; 4.0032; 15.0; 22.0; 55.0; 3.711; 67102; 
-2.3793; 8.1944; -4.5992; -0.8665; -0.2238; -0.2579; 4.0; 9.75; -48.78; 14.05; 234.58; -44.44; 99.96; 65.415; 59.937202; 10.528411; 248.7; 4.0032; 15.0; 22.0; 55.0; 3.711; 67202; 
-3.0417; 7.1277; -1.8591; -0.8665; -0.2238; -0.2579; 4.0; 9.75; -48.78; 14.05; 234.58; -44.44; 99.96; 63.888; 59.937202; 10.528411; 248.7; 4.0032; 15.0; 22.0; 55.0; 3.711; 67304; 
-3.0417; 7.1277; -1.8591; 0.1684; -0.0096; -0.4466; 4.0; 14.95; -48.28; 7.04; 186.04; -53.78; 109.49; 63.888; 59.937202; 10.528411; 248.7; 4.0032; 15.0; 22.0; 55.0; 3.711; 67404; 
-3.0563; 5.7835; -0.6926; 0.1684; -0.0096; -0.4466; 4.0; 14.95; -48.28; 7.04; 186.04; -53.78; 109.49; 63.888; 59.937202; 10.528411; 248.7; 4.0032; 15.0; 22.0; 55.0; 3.711; 67504; 
-3.0563; 5.7835; -0.6926; -0.3528; 0.065; -0.1567; 4.0; 14.95; -48.28; 7.04; 186.04; -53.78; 109.49; 63.888; 59.937202; 10.528411; 248.7; 4.0032; 15.0; 22.0; 55.0; 3.711; 67604; 
-8.7477; 12.6218; -1.6289; -0.3528; 0.065; -0.1567; 4.0; 18.15; -46.28; 8.97; 186.04; -53.78; 109.49; 55.359; 59.937202; 10.528411; 248.7; 4.0032; 15.0; 22.0; 55.0; 3.711; 67704; 
-8.7477; 12.6218; -1.6289; 0.3816; -0.955; 0.0949; 4.0; 18.15; -46.28; 8.97; 186.04; -53.78; 109.49; 55.359; 59.937202; 10.528411; 248.7; 4.0032; 15.0; 22.0; 55.0; 3.711; 67817; 
-6.0441; 7.8655; -2.4039; 0.3816; -0.955; 0.0949; 4.0; 19.65; -45.68; 5.62; 182.45; -50.81; 105.19; 55.359; 59.937202; 10.528411; 248.7; 4.0032; 15.0; 22.0; 55.0; 3.711; 67931; 
-6.0441; 7.8655; -2.4039; -0.453; -0.9827; -0.4093; 4.0; 19.65; -45.68; 5.62; 182.45; -50.81; 105.19; 50.514; 59.937202; 10.528411; 248.7; 4.0032; 15.0; 22.0; 55.0; 3.711; 68031; 
-5.8205; 5.2893; -0.0222; -0.453; -0.9827; -0.4093; 4.0; 19.65; -45.68; 5.62; 182.45; -50.81; 105.19; 50.514; 59.937202; 10.528411; 248.7; 4.0032; 15.0; 22.0; 55.0; 3.711; 68132; 
-5.8205; 5.2893; -0.0222; 0.3421; -0.5233; 0.2451; 4.0; 20.45; -45.68; -0.98; 182.45; -50.81; 105.19; 50.514; 59.937202; 10.528411; 248.7; 4.0032; 15.0; 22.0; 55.0; 3.711; 68232; 
-5.898; 6.3781; 1.2945; 0.3421; -0.5233; 0.2451; 4.0472; 20.45; -45.68; -0.98; 182.45; -50.81; 105.19; 50.514; 59.937202; 10.528411; 248.7; 4.0032; 15.0; 22.0; 55.0; 3.711; 68333; 
-5.898; 6.3781; 1.2945; 1.359; 1.3664; 0.1844; 4.0472; 20.45; -45.68; -0.98; 182.45; -50.81; 105.19; 53.781; 59.937202; 10.528411; 248.7; 4.0032; 15.0; 22.0; 55.0; 3.711; 68433; 
-1.3999; 1.5809; -0.6067; 1.359; 1.3664; 0.1844; 4.0472; 15.75; -45.18; 15.88; 219.68; -46.32; 88.24; 53.781; 59.937202; 10.528411; 248.7; 4.0032; 15.0; 22.0; 55.0; 3.711; 68533; 
-1.3999; 1.5809; -0.6067; 0.1151; 0.9028; 2.0166; 4.0472; 15.75; -45.18; 15.88; 219.68; -46.32; 88.24; 53.781; 59.937202; 10.528411; 248.7; 4.0032; 15.0; 22.0; 55.0; 3.711; 68653; 
-12.0963; 7.2032; -2.9885; 0.1151; 0.9028; 2.0166; 4.0472; 2.25; -43.68; 26.34; 219.68; -46.32; 88.24; 70.469; 59.937202; 10.528411; 248.7; 4.0032; 15.0; 22.0; 55.0; 3.711; 68786; 
-12.0963; 7.2032; -2.9885; -0.2046; -0.9529; 0.3379; 4.0472; 2.25; -43.68; 26.34; 219.68; -46.32; 88.24; 70.469; 59.937202; 10.528411; 248.7; 4.0032; 15.0; 22.0; 55.0; 3.711; 68886; 
1.7123; 9.8247; -7.1108; -0.2046; -0.9529; 0.3379; 4.0472; 2.25; -43.68; 26.34; 219.68; -46.32; 88.24; 70.469; 59.937202; 10.528411; 248.7; 4.0032; 15.0; 22.0; 55.0; 3.711; 68987; 
1.7123; 9.8247; -7.1108; -1.3717; 0.3464; -0.4668; 4.0472; 4.75; -47.88; 16.69; 205.1; -51.67; 136.17; 61.921; 59.937202; 10.528411; 248.7; 4.0032; 15.0; 22.0; 55.0; 3.711; 69109; 
-1.3241; 7.6588; -2.8969; -1.3717; 0.3464; -0.4668; 4.0472; 4.75; -47.88; 16.69; 205.1; -51.67; 136.17; 61.921; 59.937202; 10.528411; 248.7; 4.0032; 15.0; 22.0; 55.0; 3.711; 69223; 
-2.3299; 6.054; -1.0791; 0.3944; 0.1748; -0.1716; 4.0472; 7.65; -48.68; 13.65; 205.1; -51.67; 136.17; 61.921; 59.937202; 10.528411; 248.7; 4.0032; 15.0; 22.0; 55.0; 3.711; 69352; 
-2.3299; 6.054; -1.0791; 0.566; -0.5937; -0.3752; 4.192; 7.65; -48.68; 13.65; 205.1; -51.67; 136.17; 61.261; 59.937202; 10.528411; 248.7; 4.0032; 15.0; 22.0; 55.0; 3.711; 69467; 
-7.2895; 14.3278; -4.5414; 0.566; -0.5937; -0.3752; 4.192; 7.65; -48.68; 13.65; 205.1; -51.67; 136.17; 61.261; 59.937202; 10.528411; 248.7; 4.0032; 15.0; 22.0; 55.0; 3.711; 69567; 
-7.2895; 14.3278; -4.5414; -0.5724; -0.6203; -0.2057; 4.5505; 13.75; -46.28; 15.88; 213.16; -57.46; 125.89; 61.261; 59.937202; 10.528411; 248.7; 4.0032; 15.0; 22.0; 55.0; 3.711; 69684; 
-6.0801; 6.8825; -4.0992; -0.5724; -0.6203; -0.2057; 4.5505; 13.75; -46.28; 15.88; 213.16; -57.46; 125.89; 54.147; 59.937202; 10.528411; 248.7; 4.0032; 15.0; 22.0; 55.0; 3.711; 69796; 
-6.0801; 6.8825; -4.0992; -0.1844; -0.6054; -0.1162; 4.5505; 18.05; -46.58; 5.42; 213.16; -57.46; 125.89; 54.147; 59.937202; 10.528411; 248.7; 4.0032; 15.0; 22.0; 55.0; 3.711; 69906; 
-4.8555; 3.7789; -0.5265; -0.1844; -0.6054; -0.1162; 5.9588; 18.05; -46.58; 5.42; 213.16; -57.46; 125.89; 54.147; 59.937202; 10.528411; 248.7; 4.0032; 15.0; 22.0; 55.0; 3.711; 70006; 
-4.8555; 3.7789; -0.5265; 0.8463; 0.5574; 0.1887; 5.9588; 18.05; -46.58; 5.42; 213.16; -57.46; 125.89; 54.147; 59.937202; 10.528411; 248.7; 4.0032; 15.0; 22.0; 55.0; 3.711; 70109; 
-2.6392; 3.027; -0.1639; 0.8463; 0.5574; 0.1887; 7.0217; 17.45; -43.68; 16.59; 203.63; -46.87; 121.28; 50.512; 59.937202; 10.528411; 248.7; 4.0032; 15.0; 22.0; 55.0; 3.711; 70223; 
-2.6392; 3.027; -0.1639; 2.0326; 1.2726; 0.4072; 7.0217; 17.45; -43.68; 16.59; 203.63; -46.87; 121.28; 50.512; 59.937202; 10.528411; 248.7; 4.0032; 15.0; 22.0; 55.0; 3.711; 70326; 
-10.4701; 6.7366; -3.2129; 2.0326; 1.2726; 0.4072; 7.0217; 17.45; -43.68; 16.59; 203.63; -46.87; 121.28; 50.512; 59.937202; 10.528411; 248.7; 4.0032; 15.0; 22.0; 55.0; 3.711; 70427; 
-10.4701; 6.7366; -3.2129; -0.0075; -0.6662; 0.5436; 5.2379; 6.05; -43.38; 25.94; 203.63; -46.87; 121.28; 70.789; 59.937202; 10.528411; 248.7; 4.0032; 15.0; 22.0; 55.0; 3.711; 70527; 
-3.2761; 9.5771; -6.6378; -0.0075; -0.6662; 0.5436; 5.2379; 6.05; -43.38; 25.94; 203.63; -46.87; 121.28; 70.789; 59.937202; 10.528411; 248.7; 4.0032; 15.0; 22.0; 55.0; 3.711; 70628; 
-3.2761; 9.5771; -6.6378; -1.829; 0.1705; -0.4541; 8.0823; 9.65; -47.58; 15.27; 193.44; -44.76; 129.4; 70.789; 59.937202; 10.528411; 248.7; 4.0032; 15.0; 22.0; 55.0; 3.711; 70771; 
-2.61; 7.0104; -2.1844; -1.829; 0.1705; -0.4541; 8.0823; 9.65; -47.58; 15.27; 193.44; -44.76; 129.4; 59.694; 59.93724; 10.528212; 249.3; 3.31515; 15.0; 22.0; 55.0; 3.711; 70871; 
-2.61; 7.0104; -2.1844; 0.0949; -0.0469; -0.4743; 8.0823; 9.65; -47.58; 15.27; 193.44; -44.76; 129.4; 59.694; 59.93724; 10.528212; 249.3; 3.31515; 15.0; 22.0; 55.0; 3.711; 70971; 
