ACCELEROMETER X (m/s²);ACCELEROMETER Y (m/s²);ACCELEROMETER Z (m/s²);GYROSCOPE X (rad/s);GYROSCOPE Y (rad/s);GYROSCOPE Z (rad/s);LIGHT ( lux);MAGNETIC FIELD X (μT);MAGNETIC FIELD Y (μT);MAGNETIC FIELD Z (μT);ORIENTATION X (°);ORIENTATION Y (°);ORIENTATION Z (°);SOUND LEVEL (dB);LOCATION Latitude : ;LOCATION Longitude : ;LOCATION Altitude ( m);LOCATION Speed ( m/s);LOCATION Accuracy ( m);Temperature ( °C);Level (%);Voltage (Volt);Time since start in ms ; 
-5.2445; 7.1213; 3.5072; -0.0128; -0.0171; 0.0224; 5.8208; 31.55; -34.77; -7.08; 270.47; -49.88; 54.94; 36.044; 59.93677; 10.509521; 249.1; 0.31275; 5.0; 27.0; 59.0; 3.718; 3; 
-5.2445; 7.1213; 3.5072; -0.0277; -0.0096; 0.0181; 5.8208; 31.85; -34.87; -7.38; 274.15; -50.09; 55.89; 36.044; 59.93677; 10.509521; 249.1; 0.31275; 5.0; 27.0; 59.0; 3.718; 104; 
-5.2792; 7.1445; 3.5488; -0.0277; -0.0096; 0.0181; 5.8208; 31.85; -34.87; -7.38; 274.15; -50.09; 55.89; 36.044; 59.93677; 10.509521; 249.1; 0.31275; 5.0; 27.0; 59.0; 3.718; 204; 
-5.2792; 7.1445; 3.5488; -0.0053; -0.0128; 0.0171; 5.8208; 31.85; -34.87; -7.38; 274.15; -50.09; 55.89; 40.398; 59.93677; 10.509521; 249.1; 0.31275; 5.0; 27.0; 59.0; 3.718; 304; 
-5.2448; 7.0002; 3.671; -0.0053; -0.0128; 0.0171; 5.8208; 31.95; -34.87; -6.47; 274.15; -50.09; 55.89; 40.398; 59.93677; 10.509521; 249.1; 0.31275; 5.0; 27.0; 59.0; 3.718; 433; 
-5.2448; 7.0002; 3.671; 0.0203; -0.0075; 0.016; 5.8208; 31.95; -34.87; -6.47; 274.15; -50.09; 55.89; 40.398; 59.93677; 10.509521; 249.1; 0.31275; 5.0; 27.0; 59.0; 3.718; 533; 
-5.3089; 7.025; 3.6385; 0.0203; -0.0075; 0.016; 5.8208; 31.85; -34.57; -8.1; 274.51; -49.72; 55.29; 36.975; 59.93677; 10.509521; 249.1; 0.31275; 5.0; 27.0; 59.0; 3.718; 647; 
-5.3089; 7.025; 3.6385; 0.0043; -0.0181; 0.0053; 5.8208; 31.85; -34.57; -8.1; 274.51; -49.72; 55.29; 36.975; 59.93677; 10.509521; 249.1; 0.31275; 5.0; 27.0; 59.0; 3.718; 747; 
-5.1656; 7.4524; 3.1029; 0.0043; -0.0181; 0.0053; 5.8208; 31.85; -34.57; -8.1; 274.51; -49.72; 55.29; 36.975; 59.93677; 10.509521; 249.1; 0.31275; 5.0; 27.0; 59.0; 3.718; 865; 
-5.1656; 7.4524; 3.1029; -0.0139; 0.2036; 0.2164; 5.8208; 30.75; -36.17; -2.91; 274.51; -49.72; 55.29; 61.933; 59.93677; 10.509521; 249.1; 0.31275; 5.0; 27.0; 59.0; 3.718; 965; 
-5.5672; 7.2535; 2.6675; -0.0139; 0.2036; 0.2164; 5.8208; 30.75; -36.17; -2.91; 274.51; -49.72; 55.29; 61.933; 59.93677; 10.509521; 249.1; 0.31275; 5.0; 27.0; 59.0; 3.718; 1066; 
-5.5672; 7.2535; 2.6675; 0.0373; 0.0533; 0.0085; 5.8208; 31.55; -36.07; -1.59; 260.91; -49.39; 54.93; 61.933; 59.93677; 10.509521; 249.1; 0.31275; 5.0; 27.0; 59.0; 3.718; 1179; 
-5.5223; 7.3232; 2.5717; 0.0373; 0.0533; 0.0085; 5.8208; 31.55; -36.07; -1.59; 260.91; -49.39; 54.93; 61.933; 59.93677; 10.509521; 249.1; 0.31275; 5.0; 27.0; 59.0; 3.718; 1279; 
-5.5223; 7.3232; 2.5717; 0.0416; 0.0426; 0.0266; 5.8894; 31.55; -36.07; -1.59; 260.91; -49.39; 54.93; 52.305; 59.93677; 10.509521; 249.1; 0.31275; 5.0; 27.0; 59.0; 3.718; 1382; 
-6.1022; 7.2827; 2.5444; 0.0416; 0.0426; 0.0266; 5.8894; 31.35; -36.47; -0.17; 260.91; -49.39; 54.93; 52.305; 59.93677; 10.509521; 249.1; 0.31275; 5.0; 27.0; 59.0; 3.718; 1483; 
-6.1022; 7.2827; 2.5444; -0.0917; -0.1268; -0.0789; 5.8894; 31.35; -36.47; -0.17; 260.91; -49.39; 54.93; 52.305; 59.93677; 10.509521; 249.1; 0.31275; 5.0; 27.0; 59.0; 3.718; 1583; 
-5.6347; 7.4421; 2.2744; -0.0917; -0.1268; -0.0789; 5.8894; 31.35; -36.47; -0.17; 260.91; -49.39; 54.93; 74.951; 59.93677; 10.509521; 249.1; 0.31275; 5.0; 27.0; 59.0; 3.718; 1694; 
-5.6347; 7.4421; 2.2744; 0.0288; -0.0245; 0.0096; 6.0291; 31.35; -36.17; 0.13; 273.57; -52.72; 66.28; 74.951; 59.93677; 10.509521; 249.1; 0.31275; 5.0; 27.0; 59.0; 3.718; 1794; 
-5.6225; 7.431; 2.2949; 0.0288; -0.0245; 0.0096; 6.0291; 31.35; -36.17; 0.13; 273.57; -52.72; 66.28; 74.951; 59.93677; 10.509521; 249.1; 0.31275; 5.0; 27.0; 59.0; 3.718; 1898; 
-5.6225; 7.431; 2.2949; 0.0266; 0.0746; 0.0298; 6.0291; 31.35; -36.17; 0.13; 273.57; -52.72; 66.28; 40.226; 59.93677; 10.509521; 249.1; 0.31275; 5.0; 27.0; 59.0; 3.718; 1998; 
-5.6524; 7.391; 2.1754; 0.0266; 0.0746; 0.0298; 6.1002; 31.25; -35.77; 0.13; 273.57; -52.72; 66.28; 40.226; 59.93677; 10.509521; 249.1; 0.31275; 5.0; 27.0; 59.0; 3.718; 2105; 
-5.6524; 7.391; 2.1754; 0.081; 0.0245; 0.016; 6.1002; 31.25; -35.77; 0.13; 273.57; -52.72; 66.28; 40.226; 59.93677; 10.509521; 249.1; 0.31275; 5.0; 27.0; 59.0; 3.718; 2205; 
-5.6006; 7.4563; 1.982; 0.081; 0.0245; 0.016; 6.1002; 31.55; -35.77; 1.05; 275.58; -52.65; 67.19; 40.226; 59.93677; 10.509521; 249.1; 0.31275; 5.0; 27.0; 59.0; 3.718; 2311; 
-5.6006; 7.4563; 1.982; 0.0171; -0.0725; -0.0053; 6.1002; 31.55; -35.77; 1.05; 275.58; -52.65; 67.19; 38.57; 59.93677; 10.509521; 249.1; 0.31275; 5.0; 27.0; 59.0; 3.718; 2411; 
-5.6603; 7.4719; 2.084; 0.0171; -0.0725; -0.0053; 6.2449; 31.75; -35.67; 0.34; 275.58; -52.65; 67.19; 38.57; 59.93677; 10.509521; 249.1; 0.31275; 5.0; 27.0; 59.0; 3.718; 2531; 
-5.6603; 7.4719; 2.084; 0.0565; 0.0011; 0.0234; 6.2449; 31.75; -35.67; 0.34; 275.58; -52.65; 67.19; 38.57; 59.93677; 10.509521; 249.1; 0.31275; 5.0; 27.0; 59.0; 3.718; 2631; 
-5.6686; 7.484; 2.0513; 0.0565; 0.0011; 0.0234; 6.2449; 31.75; -35.67; 0.34; 275.58; -52.65; 67.19; 38.364; 59.93677; 10.509521; 249.1; 0.31275; 5.0; 27.0; 59.0; 3.718; 2734; 
-5.6686; 7.484; 2.0513; 0.0416; -0.0011; 0.0192; 6.3186; 31.25; -35.47; 0.13; 279.02; -52.6; 69.14; 38.364; 59.93677; 10.509521; 249.1; 0.31275; 5.0; 27.0; 59.0; 3.718; 2845; 
-5.5898; 7.3732; 2.0334; 0.0416; -0.0011; 0.0192; 6.3186; 31.25; -35.47; 0.13; 279.02; -52.6; 69.14; 38.364; 59.93677; 10.509521; 249.1; 0.31275; 5.0; 27.0; 59.0; 3.718; 2945; 
-5.5898; 7.3732; 2.0334; -0.0096; -0.0352; 0.0203; 6.3186; 31.25; -35.47; 0.13; 279.02; -52.6; 69.14; 38.364; 59.93677; 10.509521; 249.1; 0.31275; 5.0; 27.0; 59.0; 3.718; 3045; 
-5.7195; 7.3984; 2.1109; -0.0096; -0.0352; 0.0203; 6.3186; 31.55; -35.77; 0.54; 279.02; -52.6; 69.14; 40.169; 59.93677; 10.509521; 249.1; 0.31275; 5.0; 27.0; 59.0; 3.718; 3152; 
-5.7195; 7.3984; 2.1109; 0.0373; 0.016; 0.016; 6.3186; 31.55; -35.77; 0.54; 279.02; -52.6; 69.14; 40.169; 59.93677; 10.509521; 249.1; 0.31275; 5.0; 27.0; 59.0; 3.718; 3252; 
-5.679; 7.4223; 1.9967; 0.0373; 0.016; 0.016; 6.3186; 31.25; -35.47; 1.56; 276.62; -52.6; 70.48; 40.169; 59.93677; 10.509521; 249.1; 0.31275; 5.0; 27.0; 59.0; 3.718; 3383; 
-5.679; 7.4223; 1.9967; 0.1077; 0.1108; 0.0117; 6.3186; 31.25; -35.47; 1.56; 276.62; -52.6; 70.48; 52.348; 59.93677; 10.509521; 249.1; 0.31275; 5.0; 27.0; 59.0; 3.718; 3483; 
-5.6641; 7.416; 1.9311; 0.1077; 0.1108; 0.0117; 6.3186; 31.25; -35.47; 1.56; 276.62; -52.6; 70.48; 52.348; 59.93677; 10.509521; 249.1; 0.31275; 5.0; 27.0; 59.0; 3.718; 3583; 
-5.6641; 7.416; 1.9311; 0.0831; 0.0586; 0.0362; 6.3186; 31.45; -35.27; 2.98; 276.62; -52.6; 70.48; 52.348; 59.93677; 10.509521; 249.1; 0.31275; 5.0; 27.0; 59.0; 3.718; 3683; 
-5.7982; 7.2767; 1.8337; 0.0831; 0.0586; 0.0362; 6.3186; 31.45; -35.27; 2.98; 276.62; -52.6; 70.48; 54.149; 59.93677; 10.509521; 249.1; 0.31275; 5.0; 27.0; 59.0; 3.718; 3796; 
-5.7982; 7.2767; 1.8337; 0.0512; 0.2483; 0.0362; 6.3186; 31.45; -35.37; 3.18; 278.74; -52.85; 73.17; 54.149; 59.93677; 10.509521; 249.1; 0.31275; 5.0; 27.0; 59.0; 3.718; 3910; 
-5.7801; 7.4635; 1.7009; 0.0512; 0.2483; 0.0362; 6.3186; 31.45; -35.37; 3.18; 278.74; -52.85; 73.17; 54.149; 59.93677; 10.509521; 249.1; 0.31275; 5.0; 27.0; 59.0; 3.718; 4010; 
-5.7801; 7.4635; 1.7009; -0.0075; -0.1471; 0.0735; 6.3186; 31.45; -35.37; 3.18; 278.74; -52.85; 73.17; 54.149; 59.93677; 10.509521; 249.1; 0.31275; 5.0; 27.0; 59.0; 3.718; 4110; 
-5.7629; 7.4561; 1.7265; -0.0075; -0.1471; 0.0735; 6.3186; 31.55; -35.47; 3.18; 278.74; -52.85; 73.17; 56.08; 59.93677; 10.509521; 249.1; 0.31275; 5.0; 27.0; 59.0; 3.718; 4225; 
-5.7629; 7.4561; 1.7265; -0.0032; -0.2036; -0.0011; 6.3186; 31.55; -35.47; 3.18; 278.74; -52.85; 73.17; 56.08; 59.93677; 10.509521; 249.1; 0.31275; 5.0; 27.0; 59.0; 3.718; 4325; 
-5.8055; 7.437; 2.0166; -0.0032; -0.2036; -0.0011; 6.3931; 31.55; -35.47; 3.18; 278.74; -52.85; 73.17; 56.08; 59.93677; 10.509521; 249.1; 0.31275; 5.0; 27.0; 59.0; 3.718; 4428; 
-5.8055; 7.437; 2.0166; -0.0234; -0.0895; 0.0352; 6.3931; 31.75; -35.57; 1.56; 281.12; -52.73; 73.5; 38.621; 59.93677; 10.509521; 249.1; 0.31275; 5.0; 27.0; 59.0; 3.718; 4539; 
-5.6992; 7.3472; 2.0242; -0.0234; -0.0895; 0.0352; 6.3931; 31.75; -35.57; 1.56; 281.12; -52.73; 73.5; 38.621; 59.93677; 10.509521; 249.1; 0.31275; 5.0; 27.0; 59.0; 3.718; 4639; 
-5.6992; 7.3472; 2.0242; 0.0117; -0.016; 0.0384; 6.5447; 31.25; -35.27; 0.64; 281.12; -52.73; 73.5; 38.621; 59.93677; 10.509521; 249.1; 0.31275; 5.0; 27.0; 59.0; 3.718; 4773; 
-5.535; 7.3704; 2.0356; -0.0384; 0.1428; 0.0917; 6.5447; 31.25; -35.27; 0.64; 281.12; -52.73; 73.5; 37.858; 59.93677; 10.509521; 249.1; 0.31275; 5.0; 27.0; 59.0; 3.718; 4914; 
-5.535; 7.3704; 2.0356; -0.0384; 0.1428; 0.0917; 6.5447; 31.25; -35.27; 0.64; 281.12; -52.73; 73.5; 37.858; 59.93677; 10.509521; 249.1; 0.31275; 5.0; 27.0; 59.0; 3.718; 5014; 
-5.5585; 7.2952; 2.2277; -0.0512; 0.1045; 0.032; 6.6219; 30.75; -36.07; 1.56; 274.91; -53.01; 70.05; 37.858; 59.93677; 10.509521; 249.1; 0.31275; 5.0; 27.0; 59.0; 3.718; 5122; 
-5.5585; 7.2952; 2.2277; -0.0512; 0.1045; 0.032; 6.6219; 30.75; -36.07; 1.56; 274.91; -53.01; 70.05; 47.438; 59.93677; 10.509521; 249.1; 0.31275; 5.0; 27.0; 59.0; 3.718; 5222; 
-5.338; 7.5892; 1.8437; -0.0959; 0.0032; -0.064; 6.6219; 31.55; -35.57; 1.56; 274.91; -53.01; 70.05; 47.438; 59.93677; 10.509521; 249.1; 0.31275; 5.0; 27.0; 59.0; 3.718; 5322; 
-5.338; 7.5892; 1.8437; -0.0959; 0.0032; -0.064; 6.6219; 31.55; -35.57; 1.56; 274.91; -53.01; 70.05; 47.438; 59.93677; 10.509521; 249.1; 0.31275; 5.0; 27.0; 59.0; 3.718; 5422; 
-5.9205; 7.2376; 2.0699; 0.0043; 0.0501; 0.016; 6.6219; 31.75; -35.37; 1.56; 275.27; -51.52; 69.8; 41.629; 59.93677; 10.509521; 249.1; 0.31275; 5.0; 27.0; 59.0; 3.718; 5553; 
-5.9271; 7.0884; 1.8374; 0.0043; 0.0501; 0.016; 6.6219; 31.75; -35.37; 1.56; 275.27; -51.52; 69.8; 41.629; 59.93677; 10.509521; 249.1; 0.31275; 5.0; 27.0; 59.0; 3.718; 5659; 
-5.9271; 7.0884; 1.8374; 0.0757; -0.0298; 0.0757; 6.6219; 31.75; -35.37; 1.56; 275.27; -51.52; 69.8; 41.629; 59.93677; 10.509521; 249.1; 0.31275; 5.0; 27.0; 59.0; 3.718; 5759; 
-5.8715; 7.2593; 1.8822; 0.0757; -0.0298; 0.0757; 6.6219; 31.45; -35.47; 1.96; 275.27; -51.52; 69.8; 41.629; 59.93677; 10.509521; 249.1; 0.31275; 5.0; 27.0; 59.0; 3.718; 5862; 
-5.8715; 7.2593; 1.8822; 0.0064; 0.0522; 0.0693; 6.6219; 31.45; -35.47; 1.96; 275.27; -51.52; 69.8; 40.816; 59.93677; 10.509521; 249.1; 0.31275; 5.0; 27.0; 59.0; 3.718; 5962; 
-5.8715; 7.2593; 1.8822; 0.0064; 0.0522; 0.0693; 6.6219; 31.45; -35.47; 1.96; 275.27; -51.52; 69.8; 40.816; 59.93677; 10.509521; 249.1; 0.31275; 5.0; 27.0; 59.0; 3.718; 6062; 
-5.7567; 7.3707; 1.7831; -0.0394; -0.0053; -0.0139; 6.6219; 31.25; -35.87; 2.47; 269.93; -51.43; 71.13; 40.816; 59.93677; 10.509521; 249.1; 0.31275; 5.0; 27.0; 59.0; 3.718; 6166; 
-5.7567; 7.3707; 1.7831; -0.0394; -0.0053; -0.0139; 6.6219; 31.25; -35.87; 2.47; 269.93; -51.43; 71.13; 36.815; 59.93677; 10.509521; 249.1; 0.31275; 5.0; 27.0; 59.0; 3.718; 6266; 
-5.8359; 7.2809; 1.868; 0.0266; -0.0203; -0.0266; 6.6219; 31.55; -35.67; 2.17; 269.93; -51.43; 71.13; 36.815; 59.93677; 10.509521; 249.1; 0.31275; 5.0; 27.0; 59.0; 3.718; 6396; 
-5.8361; 7.4635; 1.8518; 0.0266; -0.0203; -0.0266; 6.6219; 31.55; -35.67; 2.17; 269.93; -51.43; 71.13; 36.815; 59.93677; 10.509521; 249.1; 0.31275; 5.0; 27.0; 59.0; 3.718; 6523; 
-5.8361; 7.4635; 1.8518; -0.0298; -0.0224; 0.0181; 6.6219; 31.55; -35.67; 2.17; 269.93; -51.43; 71.13; 37.721; 59.93677; 10.509521; 249.1; 0.31275; 5.0; 27.0; 59.0; 3.718; 6637; 
-5.8581; 7.2834; 1.9951; -0.0298; -0.0224; 0.0181; 6.6219; 31.75; -35.67; 1.76; 275.5; -51.88; 71.54; 37.721; 59.93677; 10.509521; 249.1; 0.31275; 5.0; 27.0; 59.0; 3.718; 6737; 
-5.8581; 7.2834; 1.9951; 0.0096; -0.0149; 0.0171; 6.6219; 31.75; -35.67; 1.76; 275.5; -51.88; 71.54; 37.721; 59.93677; 10.509521; 249.1; 0.31275; 5.0; 27.0; 59.0; 3.718; 6837; 
-5.787; 7.3982; 1.8656; 0.0096; -0.0149; 0.0171; 6.5447; 31.25; -35.37; 2.67; 275.5; -51.88; 71.54; 37.721; 59.93677; 10.509521; 249.1; 0.31275; 5.0; 27.0; 59.0; 3.718; 6954; 
-5.787; 7.3982; 1.8656; 0.065; 0.0256; 0.0437; 6.5447; 31.25; -35.37; 2.67; 275.5; -51.88; 71.54; 37.404; 59.93677; 10.509521; 249.1; 0.31275; 5.0; 27.0; 59.0; 3.718; 7054; 
-5.7894; 7.4035; 1.9581; 0.065; 0.0256; 0.0437; 6.5447; 31.25; -35.37; 2.67; 275.5; -51.88; 71.54; 37.404; 59.93677; 10.509521; 249.1; 0.31275; 5.0; 27.0; 59.0; 3.718; 7155; 
-5.7894; 7.4035; 1.9581; -0.0586; 0.033; 0.0096; 6.5447; 31.35; -35.87; 2.17; 272.29; -51.87; 71.88; 37.404; 59.93677; 10.509521; 249.1; 0.31275; 5.0; 27.0; 59.0; 3.718; 7255; 
-5.794; 7.3472; 1.9259; -0.0586; 0.033; 0.0096; 6.4685; 31.35; -35.87; 2.17; 272.29; -51.87; 71.88; 43.684; 59.93677; 10.509521; 249.1; 0.31275; 5.0; 27.0; 59.0; 3.718; 7376; 
-5.794; 7.3472; 1.9259; -0.0117; -0.0043; 0.0032; 6.4685; 31.55; -35.57; 1.56; 272.29; -51.87; 71.88; 43.684; 59.93677; 10.509521; 249.1; 0.31275; 5.0; 27.0; 59.0; 3.718; 7509; 
-5.8859; 7.2595; 2.0078; -0.0757; 0.0085; -0.0703; 6.4685; 31.55; -35.57; 1.56; 272.29; -51.87; 71.88; 43.684; 59.93677; 10.509521; 249.1; 0.31275; 5.0; 27.0; 59.0; 3.718; 7615; 
-5.8859; 7.2595; 2.0078; -0.0757; 0.0085; -0.0703; 6.4685; 31.55; -35.57; 1.56; 272.29; -51.87; 71.88; 42.437; 59.93677; 10.509521; 249.1; 0.31275; 5.0; 27.0; 59.0; 3.718; 7715; 
-5.998; 7.3889; 1.856; -0.0757; 0.0085; -0.0703; 6.4685; 32.25; -35.07; 1.56; 276.64; -51.52; 71.17; 42.437; 59.93677; 10.509521; 249.1; 0.31275; 5.0; 27.0; 59.0; 3.718; 7816; 
-5.998; 7.3889; 1.856; -0.1577; 0.1045; 0.0831; 6.4685; 32.25; -35.07; 1.56; 276.64; -51.52; 71.17; 42.437; 59.93677; 10.509521; 249.1; 0.31275; 5.0; 27.0; 59.0; 3.718; 7916; 
-6.1082; 7.1511; 2.04; -0.1577; 0.1045; 0.0831; 6.4685; 32.25; -35.07; 1.56; 276.64; -51.52; 71.17; 53.846; 59.93677; 10.509521; 249.1; 0.31275; 5.0; 27.0; 59.0; 3.718; 8016; 
-6.1082; 7.1511; 2.04; -0.0192; -0.0117; -0.0085; 6.4685; 31.65; -35.07; 0.84; 276.64; -51.52; 71.17; 53.846; 59.93677; 10.509521; 249.1; 0.31275; 5.0; 27.0; 59.0; 3.718; 8116; 
-5.9202; 6.9626; 2.1781; -0.0192; -0.0117; -0.0085; 6.4685; 31.65; -35.07; 0.84; 276.64; -51.52; 71.17; 53.846; 59.93677; 10.509521; 249.1; 0.31275; 5.0; 27.0; 59.0; 3.718; 8217; 
-5.9202; 6.9626; 2.1781; -0.0064; -0.0266; -0.0373; 6.4685; 32.25; -35.17; 0.34; 272.46; -49.95; 69.83; 53.846; 59.93677; 10.509521; 249.1; 0.31275; 5.0; 27.0; 59.0; 3.718; 8322; 
-6.192; 6.9089; 2.2236; -0.0064; -0.0266; -0.0373; 6.4685; 32.25; -35.17; 0.34; 272.46; -49.95; 69.83; 39.037; 59.93677; 10.509521; 249.1; 0.31275; 5.0; 27.0; 59.0; 3.718; 8423; 
-6.192; 6.9089; 2.2236; -0.0309; -0.0192; 0.0245; 6.4685; 32.25; -35.17; 0.34; 272.46; -49.95; 69.83; 39.037; 59.93677; 10.509521; 249.1; 0.31275; 5.0; 27.0; 59.0; 3.718; 8523; 
-5.991; 7.0107; 2.3163; -0.0309; -0.0192; 0.0245; 6.3931; 32.45; -35.17; -0.17; 272.46; -49.95; 69.83; 39.037; 59.93677; 10.509521; 249.1; 0.31275; 5.0; 27.0; 59.0; 3.718; 8638; 
-5.991; 7.0107; 2.3163; 0.0171; -0.0203; 0.0139; 6.3931; 32.45; -35.17; -0.17; 272.46; -49.95; 69.83; 38.939; 59.93677; 10.509521; 249.1; 0.31275; 5.0; 27.0; 59.0; 3.718; 8738; 
-6.0652; 7.0256; 2.1808; 0.0171; -0.0203; 0.0139; 6.3931; 32.45; -35.17; -0.17; 272.46; -49.95; 69.83; 38.939; 59.93677; 10.509521; 249.1; 0.31275; 5.0; 27.0; 59.0; 3.718; 8838; 
-6.0652; 7.0256; 2.1808; 0.0139; 0.0533; 0.0203; 6.3931; 32.65; -34.67; -0.37; 270.3; -48.8; 68.61; 38.939; 59.93677; 10.509521; 249.1; 0.31275; 5.0; 27.0; 59.0; 3.718; 8939; 
-6.0498; 7.0057; 2.3048; 0.0139; 0.0533; 0.0203; 6.3931; 32.65; -34.67; -0.37; 270.3; -48.8; 68.61; 38.939; 59.93677; 10.509521; 249.1; 0.31275; 5.0; 27.0; 59.0; 3.718; 9039; 
-6.0498; 7.0057; 2.3048; 0.0394; -0.0501; 0.0245; 6.3931; 32.65; -34.67; -0.37; 270.3; -48.8; 68.61; 37.821; 59.93677; 10.509521; 249.1; 0.31275; 5.0; 27.0; 59.0; 3.718; 9141; 
-6.0464; 7.0122; 2.2453; 0.0394; -0.0501; 0.0245; 6.3931; 32.75; -34.97; 1.25; 270.3; -48.8; 68.61; 37.821; 59.93677; 10.509521; 249.1; 0.31275; 5.0; 27.0; 59.0; 3.718; 9253; 
-6.0464; 7.0122; 2.2453; 0.0021; -0.0085; 0.0192; 6.3931; 32.75; -34.97; 1.25; 270.3; -48.8; 68.61; 37.821; 59.93677; 10.509521; 249.1; 0.31275; 5.0; 27.0; 59.0; 3.718; 9353; 
-6.0679; 7.0186; 2.2606; 0.0021; -0.0085; 0.0192; 6.3186; 31.95; -35.17; 0.13; 267.29; -48.86; 68.86; 33.595; 59.93677; 10.509521; 249.1; 0.31275; 5.0; 27.0; 59.0; 3.718; 9475; 
-6.0679; 7.0186; 2.2606; -0.0032; 0.0107; 0.0224; 6.3186; 31.95; -35.17; 0.13; 267.29; -48.86; 68.86; 33.595; 59.93677; 10.509521; 249.1; 0.31275; 5.0; 27.0; 59.0; 3.718; 9575; 
-6.0581; 6.9685; 2.3064; -0.0032; 0.0107; 0.0224; 6.3186; 31.95; -35.17; 0.13; 267.29; -48.86; 68.86; 33.595; 59.93677; 10.509521; 249.1; 0.31275; 5.0; 27.0; 59.0; 3.718; 9687; 
-6.0581; 6.9685; 2.3064; 0.0011; 0.0096; 0.0203; 6.3186; 32.75; -35.07; -0.58; 267.29; -48.86; 68.86; 35.991; 59.93677; 10.509521; 249.1; 0.31275; 5.0; 27.0; 59.0; 3.718; 9789; 
-5.9637; 6.9601; 2.2361; 0.0011; 0.0096; 0.0203; 6.3186; 32.75; -35.07; -0.58; 267.29; -48.86; 68.86; 35.991; 59.93677; 10.509521; 249.1; 0.31275; 5.0; 27.0; 59.0; 3.718; 9898; 
-5.9637; 6.9601; 2.2361; 0.0149; -0.0075; -0.0021; 6.3186; 31.65; -34.57; 0.84; 266.39; -48.91; 68.84; 35.991; 59.93677; 10.509521; 249.1; 0.31275; 5.0; 27.0; 59.0; 3.718; 10007; 
-6.1377; 6.9655; 2.2455; 0.0149; -0.0075; -0.0021; 6.3186; 31.65; -34.57; 0.84; 266.39; -48.91; 68.84; 35.991; 59.93677; 10.509521; 249.1; 0.31275; 5.0; 27.0; 59.0; 3.718; 10118; 
-6.1377; 6.9655; 2.2455; 0.0107; 0.0224; 0.0181; 6.3186; 32.45; -34.97; 0.34; 266.39; -48.91; 68.84; 33.188; 59.93677; 10.509521; 249.1; 0.31275; 5.0; 27.0; 59.0; 3.718; 10221; 
-6.0997; 6.9981; 2.2308; 0.0107; 0.0224; 0.0181; 6.3186; 32.45; -34.97; 0.34; 266.39; -48.91; 68.84; 33.188; 59.93677; 10.509521; 249.1; 0.31275; 5.0; 27.0; 59.0; 3.718; 10342; 
-6.0997; 6.9981; 2.2308; 0.0192; 0.0096; 0.0213; 6.3186; 32.45; -34.97; 0.34; 266.39; -48.91; 68.84; 33.188; 59.93677; 10.509521; 249.1; 0.31275; 5.0; 27.0; 59.0; 3.718; 10443; 
-6.1298; 6.8406; 2.1881; 0.0192; 0.0096; 0.0213; 6.3186; 32.25; -35.07; 0.54; 266.86; -48.8; 70.26; 33.604; 59.93677; 10.509521; 249.1; 0.31275; 5.0; 27.0; 59.0; 3.718; 10544; 
-6.1298; 6.8406; 2.1881; 0.0512; -0.0107; 0.0075; 6.3186; 32.25; -35.07; 0.54; 266.86; -48.8; 70.26; 33.604; 59.93677; 10.509521; 249.1; 0.31275; 5.0; 27.0; 59.0; 3.718; 10644; 
-6.2646; 6.9724; 2.0501; 0.0512; -0.0107; 0.0075; 6.3186; 32.25; -35.07; 0.54; 266.86; -48.8; 70.26; 33.604; 59.93677; 10.509521; 249.1; 0.31275; 5.0; 27.0; 59.0; 3.718; 10744; 
-6.2646; 6.9724; 2.0501; 0.0288; -0.0064; 0.0128; 6.3186; 32.25; -34.57; 0.84; 266.86; -48.8; 70.26; 33.604; 59.93677; 10.509521; 249.1; 0.31275; 5.0; 27.0; 59.0; 3.718; 10844; 
-6.1842; 6.9569; 2.0304; 0.0288; -0.0064; 0.0128; 6.3186; 32.25; -34.57; 0.84; 266.86; -48.8; 70.26; 34.168; 59.93677; 10.509521; 249.1; 0.31275; 5.0; 27.0; 59.0; 3.718; 10944; 
-6.1842; 6.9569; 2.0304; 0.0064; 0.0; 0.0288; 6.3186; 32.25; -34.57; 0.84; 266.86; -48.8; 70.26; 34.168; 59.93677; 10.509521; 249.1; 0.31275; 5.0; 27.0; 59.0; 3.718; 11045; 
-6.2044; 6.9833; 2.0739; 0.0064; 0.0; 0.0288; 6.3186; 32.45; -34.67; 0.64; 266.87; -48.67; 71.12; 34.168; 59.93677; 10.509521; 249.1; 0.31275; 5.0; 27.0; 59.0; 3.718; 11161; 
-6.2044; 6.9833; 2.0739; 0.0171; -0.0085; 0.0128; 6.3186; 32.45; -34.67; 0.64; 266.87; -48.67; 71.12; 33.246; 59.93677; 10.509521; 249.1; 0.31275; 5.0; 27.0; 59.0; 3.718; 11262; 
-6.1113; 6.9441; 2.0359; 0.0171; -0.0085; 0.0128; 6.3186; 32.75; -34.87; 1.05; 266.87; -48.67; 71.12; 33.246; 59.93677; 10.509521; 249.1; 0.31275; 5.0; 27.0; 59.0; 3.718; 11362; 
-6.1113; 6.9441; 2.0359; 0.0213; -0.0266; 0.0149; 6.3186; 32.75; -34.87; 1.05; 266.87; -48.67; 71.12; 33.246; 59.93677; 10.509521; 249.1; 0.31275; 5.0; 27.0; 59.0; 3.718; 11462; 
-6.1787; 6.8836; 2.0468; 0.0213; -0.0266; 0.0149; 6.3186; 32.75; -34.77; 1.76; 269.09; -48.6; 71.21; 35.612; 59.93677; 10.509521; 249.1; 0.31275; 5.0; 27.0; 59.0; 3.718; 11587; 
-6.1787; 6.8836; 2.0468; 0.0192; -0.0043; 0.0203; 6.3186; 32.75; -34.77; 1.76; 269.09; -48.6; 71.21; 35.612; 59.93677; 10.509521; 249.1; 0.31275; 5.0; 27.0; 59.0; 3.718; 11687; 
-6.1128; 6.8709; 2.0674; 0.0192; -0.0043; 0.0203; 6.3186; 32.75; -34.77; 1.76; 269.09; -48.6; 71.21; 35.612; 59.93677; 10.509521; 249.1; 0.31275; 5.0; 27.0; 59.0; 3.718; 11793; 
-6.1128; 6.8709; 2.0674; -0.0032; -0.0234; 0.0213; 6.3186; 32.65; -34.47; 1.05; 269.09; -48.6; 71.21; 35.612; 59.93677; 10.509521; 249.1; 0.31275; 5.0; 27.0; 59.0; 3.718; 11893; 
-6.254; 6.931; 2.1302; -0.0032; -0.0234; 0.0213; 6.3186; 32.65; -34.47; 1.05; 269.09; -48.6; 71.21; 33.194; 59.93677; 10.509521; 249.1; 0.31275; 5.0; 27.0; 59.0; 3.718; 11993; 
-6.254; 6.931; 2.1302; -0.0043; 0.0032; 0.0661; 6.3186; 32.65; -34.47; 1.05; 269.09; -48.6; 71.21; 33.194; 59.93677; 10.509521; 249.1; 0.31275; 5.0; 27.0; 59.0; 3.718; 12093; 
-6.0519; 6.9414; 2.138; -0.0043; 0.0032; 0.0661; 6.3186; 32.75; -34.67; 0.54; 270.15; -48.58; 71.19; 33.194; 59.93677; 10.509521; 249.1; 0.31275; 5.0; 27.0; 59.0; 3.718; 12211; 
-6.0519; 6.9414; 2.138; 0.0608; -0.0831; -0.0171; 6.3186; 32.75; -34.67; 0.54; 270.15; -48.58; 71.19; 40.531; 59.93677; 10.509521; 249.1; 0.31275; 5.0; 27.0; 59.0; 3.718; 12311; 
-6.2875; 6.8023; 2.1331; 0.0608; -0.0831; -0.0171; 6.2449; 32.25; -34.97; 1.25; 270.15; -48.58; 71.19; 40.531; 59.93677; 10.509521; 249.1; 0.31275; 5.0; 27.0; 59.0; 3.718; 12422; 
-6.2875; 6.8023; 2.1331; 0.1524; -0.0266; 0.0522; 6.2449; 32.25; -34.97; 1.25; 270.15; -48.58; 71.19; 40.531; 59.93677; 10.509521; 249.1; 0.31275; 5.0; 27.0; 59.0; 3.718; 12522; 
-6.0578; 7.1773; 1.8654; 0.1524; -0.0266; 0.0522; 6.2449; 32.25; -34.97; 1.25; 270.15; -48.58; 71.19; 42.973; 59.93677; 10.509521; 249.1; 0.31275; 5.0; 27.0; 59.0; 3.718; 12627; 
-6.0578; 7.1773; 1.8654; 0.0608; -0.0799; 0.081; 6.2449; 31.85; -35.37; 1.96; 271.19; -49.89; 71.95; 42.973; 59.93677; 10.509521; 249.1; 0.31275; 5.0; 27.0; 59.0; 3.718; 12727; 
-5.826; 7.2539; 1.8936; 0.0608; -0.0799; 0.081; 6.2449; 31.85; -35.37; 1.96; 271.19; -49.89; 71.95; 42.973; 59.93677; 10.509521; 249.1; 0.31275; 5.0; 27.0; 59.0; 3.718; 12863; 
-5.826; 7.2539; 1.8936; 0.0661; -0.0533; 0.0085; 6.2449; 31.75; -35.07; 1.25; 271.19; -49.89; 71.95; 38.884; 59.93677; 10.509521; 249.1; 0.31275; 5.0; 27.0; 59.0; 3.718; 12963; 
-5.9612; 7.253; 1.8695; 0.0661; -0.0533; 0.0085; 6.2449; 31.75; -35.07; 1.25; 271.19; -49.89; 71.95; 38.884; 59.93677; 10.509521; 249.1; 0.31275; 5.0; 27.0; 59.0; 3.718; 13063; 
-5.9612; 7.253; 1.8695; 0.0096; -0.0416; 0.0213; 6.2449; 31.85; -35.37; 1.56; 276.7; -51.33; 71.9; 38.884; 59.93677; 10.509521; 249.1; 0.31275; 5.0; 27.0; 59.0; 3.718; 13181; 
-5.6261; 7.3514; 2.0944; 0.0096; -0.0416; 0.0213; 6.2449; 31.85; -35.37; 1.56; 276.7; -51.33; 71.9; 38.884; 59.93677; 10.509521; 249.1; 0.31275; 5.0; 27.0; 59.0; 3.718; 13281; 
-5.6261; 7.3514; 2.0944; 0.0266; 0.0661; 0.0362; 6.2449; 31.85; -35.37; 1.56; 276.7; -51.33; 71.9; 37.964; 59.93677; 10.509521; 249.1; 0.31275; 5.0; 27.0; 59.0; 3.718; 13382; 
-5.7718; 7.4189; 2.1573; 0.0266; 0.0661; 0.0362; 6.2449; 32.05; -35.77; 1.25; 276.7; -51.33; 71.9; 37.964; 59.93677; 10.509521; 249.1; 0.31275; 5.0; 27.0; 59.0; 3.718; 13482; 
-5.7718; 7.4189; 2.1573; 0.0735; 0.0618; 0.0309; 6.2449; 32.05; -35.77; 1.25; 276.7; -51.33; 71.9; 37.964; 59.93677; 10.509521; 249.1; 0.31275; 5.0; 27.0; 59.0; 3.718; 13583; 
-5.8516; 7.3533; 1.7782; 0.0735; 0.0618; 0.0309; 6.2449; 32.05; -35.77; 1.25; 276.7; -51.33; 71.9; 37.032; 59.93677; 10.509521; 249.1; 0.31275; 5.0; 27.0; 59.0; 3.718; 13688; 
-5.8516; 7.3533; 1.7782; 0.1194; 0.0991; 0.0416; 6.2449; 31.55; -35.47; 2.67; 275.7; -51.68; 71.21; 37.032; 59.93677; 10.509521; 249.1; 0.31275; 5.0; 27.0; 59.0; 3.718; 13788; 
-5.7982; 7.491; 1.7172; 0.1194; 0.0991; 0.0416; 6.1721; 31.55; -35.47; 2.67; 275.7; -51.68; 71.21; 37.032; 59.93677; 10.509521; 249.1; 0.31275; 5.0; 27.0; 59.0; 3.718; 13899; 
-5.7982; 7.491; 1.7172; 0.0522; -0.0373; 0.032; 6.1721; 31.75; -35.57; 2.88; 275.7; -51.68; 71.21; 37.032; 59.93677; 10.509521; 249.1; 0.31275; 5.0; 27.0; 59.0; 3.718; 14012; 
-5.8555; 7.2976; 1.7602; 0.0522; -0.0373; 0.032; 6.1721; 31.75; -35.57; 2.88; 275.7; -51.68; 71.21; 40.899; 59.93677; 10.509521; 249.1; 0.31275; 5.0; 27.0; 59.0; 3.718; 14113; 
-5.8555; 7.2976; 1.7602; 0.0224; 0.0075; 0.016; 6.1721; 31.75; -35.57; 2.88; 275.7; -51.68; 71.21; 40.899; 59.93677; 10.509521; 249.1; 0.31275; 5.0; 27.0; 59.0; 3.718; 14213; 
-5.8537; 7.3819; 1.5834; 0.0224; 0.0075; 0.016; 6.1721; 32.55; -35.37; 3.18; 284.76; -52.25; 74.51; 40.899; 59.93677; 10.509521; 249.1; 0.31275; 5.0; 27.0; 59.0; 3.718; 14318; 
-5.8537; 7.3819; 1.5834; 0.033; 0.0107; 0.0075; 6.1721; 32.55; -35.37; 3.18; 284.76; -52.25; 74.51; 40.588; 59.93677; 10.509521; 249.1; 0.31275; 5.0; 27.0; 59.0; 3.718; 14418; 
-5.9762; 7.2931; 1.6261; 0.033; 0.0107; 0.0075; 6.1721; 32.55; -35.37; 3.18; 284.76; -52.25; 74.51; 40.588; 59.93677; 10.509521; 249.1; 0.31275; 5.0; 27.0; 59.0; 3.718; 14525; 
-5.9762; 7.2931; 1.6261; 0.0309; -0.0245; 0.0245; 6.1721; 32.05; -35.17; 2.88; 284.76; -52.25; 74.51; 40.588; 59.93677; 10.509521; 249.1; 0.31275; 5.0; 27.0; 59.0; 3.718; 14625; 
-5.8401; 7.2526; 1.6012; 0.0309; -0.0245; 0.0245; 6.1721; 32.05; -35.17; 2.88; 284.76; -52.25; 74.51; 40.588; 59.93677; 10.509521; 249.1; 0.31275; 5.0; 27.0; 59.0; 3.718; 14729; 
-5.8401; 7.2526; 1.6012; 0.0384; -0.0341; 0.033; 6.1721; 32.05; -35.17; 2.88; 284.76; -52.25; 74.51; 39.469; 59.93677; 10.509521; 249.1; 0.31275; 5.0; 27.0; 59.0; 3.718; 14829; 
-5.8253; 7.385; 1.7085; 0.0384; -0.0341; 0.033; 6.1721; 32.05; -35.07; 2.67; 280.36; -51.96; 74.54; 39.469; 59.93677; 10.509521; 249.1; 0.31275; 5.0; 27.0; 59.0; 3.718; 14934; 
-5.8253; 7.385; 1.7085; 0.0853; -0.0725; 0.0629; 6.1721; 32.05; -35.07; 2.67; 280.36; -51.96; 74.54; 39.469; 59.93677; 10.509521; 249.1; 0.31275; 5.0; 27.0; 59.0; 3.718; 15035; 
-5.7386; 7.5078; 1.7012; 0.0853; -0.0725; 0.0629; 6.1721; 32.05; -35.57; 2.17; 280.36; -51.96; 74.54; 46.487; 59.93677; 10.509521; 249.1; 0.31275; 5.0; 27.0; 59.0; 3.718; 15142; 
-5.7386; 7.5078; 1.7012; -0.1172; 0.097; 0.0394; 6.1721; 32.05; -35.57; 2.17; 280.36; -51.96; 74.54; 46.487; 59.93677; 10.509521; 249.1; 0.31275; 5.0; 27.0; 59.0; 3.718; 15243; 
-5.7979; 7.2969; 1.846; -0.1172; 0.097; 0.0394; 6.1721; 31.75; -35.57; 1.56; 282.59; -52.77; 74.47; 46.487; 59.93677; 10.509521; 249.1; 0.31275; 5.0; 27.0; 59.0; 3.718; 15368; 
-5.7979; 7.2969; 1.846; -0.0405; 0.1055; 0.0224; 6.1721; 31.75; -35.57; 1.56; 282.59; -52.77; 74.47; 63.527; 59.93677; 10.509521; 249.1; 0.31275; 5.0; 27.0; 59.0; 3.718; 15482; 
-5.7479; 7.3186; 2.0153; -0.0405; 0.1055; 0.0224; 6.2449; 31.75; -35.57; 1.56; 282.59; -52.77; 74.47; 63.527; 59.93677; 10.509521; 249.1; 0.31275; 5.0; 27.0; 59.0; 3.718; 15601; 
-5.7479; 7.3186; 2.0153; 0.064; -0.0352; -0.0309; 6.2449; 31.75; -35.67; 2.17; 282.59; -52.77; 74.47; 63.527; 59.93677; 10.509521; 249.1; 0.31275; 5.0; 27.0; 59.0; 3.718; 15718; 
-5.7844; 7.4555; 1.7629; -0.0416; 0.0277; -0.0096; 6.2449; 31.45; -34.97; 1.76; 278.11; -52.59; 71.88; 63.706; 59.93677; 10.509521; 249.1; 0.31275; 5.0; 27.0; 59.0; 3.718; 15829; 
-5.7844; 7.4555; 1.7629; -0.0416; 0.0277; -0.0096; 6.2449; 31.45; -34.97; 1.76; 278.11; -52.59; 71.88; 63.706; 59.93677; 10.509521; 249.1; 0.31275; 5.0; 27.0; 59.0; 3.718; 15952; 
-6.0308; 7.322; 1.9763; -0.0522; -0.0959; 0.0565; 6.2449; 31.45; -34.97; 1.76; 278.11; -52.59; 71.88; 63.706; 59.93677; 10.509521; 249.1; 0.31275; 5.0; 27.0; 59.0; 3.718; 16060; 
-6.0308; 7.322; 1.9763; -0.0522; -0.0959; 0.0565; 6.2449; 31.55; -35.47; 0.84; 278.11; -52.59; 71.88; 67.913; 59.93677; 10.509521; 249.1; 0.31275; 5.0; 27.0; 59.0; 3.718; 16161; 
-5.8715; 7.249; 1.9922; -0.0266; -0.0192; 0.0416; 6.2449; 31.55; -35.47; 0.84; 278.11; -52.59; 71.88; 67.913; 59.93677; 10.509521; 249.1; 0.31275; 5.0; 27.0; 59.0; 3.718; 16272; 
-5.8715; 7.249; 1.9922; -0.0266; -0.0192; 0.0416; 6.2449; 31.55; -35.47; 0.84; 278.11; -52.59; 71.88; 67.913; 59.93677; 10.509521; 249.1; 0.31275; 5.0; 27.0; 59.0; 3.718; 16372; 
-5.5666; 7.4334; 2.0675; 0.0245; 0.1226; 0.0128; 6.2449; 31.85; -35.87; 0.54; 275.49; -51.95; 69.64; 67.913; 59.93677; 10.509521; 249.1; 0.31275; 5.0; 27.0; 59.0; 3.718; 16474; 
-5.5666; 7.4334; 2.0675; 0.0245; 0.1226; 0.0128; 6.2449; 31.85; -35.87; 0.54; 275.49; -51.95; 69.64; 67.8; 59.93677; 10.509521; 249.1; 0.31275; 5.0; 27.0; 59.0; 3.718; 16575; 
-5.7949; 7.2618; 2.0141; 0.0373; 0.0213; -0.0171; 6.2449; 31.85; -35.67; 0.54; 275.49; -51.95; 69.64; 67.8; 59.93677; 10.509521; 249.1; 0.31275; 5.0; 27.0; 59.0; 3.718; 16679; 
-5.7949; 7.2618; 2.0141; 0.0373; 0.0213; -0.0171; 6.2449; 31.85; -35.67; 0.54; 275.49; -51.95; 69.64; 67.8; 59.93677; 10.509521; 249.1; 0.31275; 5.0; 27.0; 59.0; 3.718; 16795; 
-6.0176; 6.9637; 1.6843; -0.0416; 0.0554; -0.0767; 6.2449; 31.85; -35.67; 0.54; 275.49; -51.95; 69.64; 62.973; 59.93677; 10.509521; 249.1; 0.31275; 5.0; 27.0; 59.0; 3.718; 16898; 
-6.0176; 6.9637; 1.6843; -0.0416; 0.0554; -0.0767; 6.2449; 32.05; -35.17; 1.25; 278.92; -51.72; 70.86; 62.973; 59.93677; 10.509521; 249.1; 0.31275; 5.0; 27.0; 59.0; 3.718; 16998; 
-5.8338; 7.1635; 1.9853; -0.0224; 0.0597; 0.0075; 6.2449; 32.05; -35.17; 1.25; 278.92; -51.72; 70.86; 62.973; 59.93677; 10.509521; 249.1; 0.31275; 5.0; 27.0; 59.0; 3.718; 17104; 
-5.8338; 7.1635; 1.9853; -0.0224; 0.0597; 0.0075; 6.2449; 32.05; -35.17; 1.25; 278.92; -51.72; 70.86; 62.973; 59.93677; 10.509521; 249.1; 0.31275; 5.0; 27.0; 59.0; 3.718; 17204; 
-5.7945; 7.3617; 1.8292; -0.0362; -0.0554; -0.0117; 6.2449; 32.25; -35.37; 1.76; 278.92; -51.72; 70.86; 59.435; 59.93677; 10.509521; 249.1; 0.31275; 5.0; 27.0; 59.0; 3.718; 17322; 
-5.7945; 7.3617; 1.8292; -0.0362; -0.0554; -0.0117; 6.2449; 32.25; -35.37; 1.76; 278.92; -51.72; 70.86; 59.435; 59.93677; 10.509521; 249.1; 0.31275; 5.0; 27.0; 59.0; 3.718; 17423; 
-6.2562; 7.049; 1.8142; 0.2398; -0.2569; -0.048; 6.2449; 32.75; -34.27; 1.56; 283.72; -51.51; 72.11; 59.435; 59.93677; 10.509521; 249.1; 0.31275; 5.0; 27.0; 59.0; 3.718; 17536; 
-6.2562; 7.049; 1.8142; 0.2398; -0.2569; -0.048; 6.2449; 32.75; -34.27; 1.56; 283.72; -51.51; 72.11; 55.168; 59.93677; 10.509521; 249.1; 0.31275; 5.0; 27.0; 59.0; 3.718; 17636; 
-5.7021; 7.2836; 1.8141; -0.0586; 0.0586; 0.1204; 6.2449; 32.75; -34.27; 1.56; 283.72; -51.51; 72.11; 55.168; 59.93677; 10.509521; 249.1; 0.31275; 5.0; 27.0; 59.0; 3.718; 17736; 
-5.7021; 7.2836; 1.8141; -0.0586; 0.0586; 0.1204; 6.2449; 32.45; -34.37; 1.76; 283.72; -51.51; 72.11; 55.168; 59.93677; 10.509521; 249.1; 0.31275; 5.0; 27.0; 59.0; 3.718; 17836; 
-5.5633; 7.4082; 1.8876; -0.0149; 0.0458; 0.0927; 6.2449; 32.45; -34.37; 1.76; 283.72; -51.51; 72.11; 50.914; 59.93677; 10.509521; 249.1; 0.31275; 5.0; 27.0; 59.0; 3.718; 17955; 
-5.5633; 7.4082; 1.8876; -0.0149; 0.0458; 0.0927; 6.2449; 32.45; -34.37; 1.76; 283.72; -51.51; 72.11; 50.914; 59.93677; 10.509521; 249.1; 0.31275; 5.0; 27.0; 59.0; 3.718; 18055; 
-5.6865; 7.4256; 1.8283; 0.0341; 0.1013; 0.0895; 6.2449; 31.75; -35.07; 2.27; 281.97; -52.61; 72.22; 50.914; 59.93677; 10.509521; 249.1; 0.31275; 5.0; 27.0; 59.0; 3.718; 18155; 
-5.6865; 7.4256; 1.8283; 0.0341; 0.1013; 0.0895; 6.2449; 31.75; -35.07; 2.27; 281.97; -52.61; 72.22; 50.914; 59.93677; 10.509521; 249.1; 0.31275; 5.0; 27.0; 59.0; 3.718; 18256; 
-5.6364; 7.6063; 1.6404; 0.0938; 0.0149; 0.0469; 6.2449; 30.75; -35.77; 3.38; 281.97; -52.61; 72.22; 43.648; 59.93677; 10.509521; 249.1; 0.31275; 5.0; 27.0; 59.0; 3.718; 18377; 
-5.6364; 7.6063; 1.6404; 0.0938; 0.0149; 0.0469; 6.2449; 30.75; -35.77; 3.38; 281.97; -52.61; 72.22; 43.648; 59.93677; 10.509521; 249.1; 0.31275; 5.0; 27.0; 59.0; 3.718; 18478; 
-5.6172; 7.4084; 1.6081; -0.13; 0.0799; -0.0789; 6.2449; 30.75; -35.77; 3.38; 281.97; -52.61; 72.22; 43.648; 59.93677; 10.509521; 249.1; 0.31275; 5.0; 27.0; 59.0; 3.718; 18578; 
-5.6172; 7.4084; 1.6081; -0.13; 0.0799; -0.0789; 6.2449; 30.85; -36.07; 3.89; 282.2; -54.22; 75.59; 51.326; 59.93677; 10.509521; 249.1; 0.31275; 5.0; 27.0; 59.0; 3.718; 18678; 
-5.884; 7.2768; 1.4524; 0.3166; -0.0629; -0.0778; 6.2449; 30.85; -36.07; 3.89; 282.2; -54.22; 75.59; 51.326; 59.93677; 10.509521; 249.1; 0.31275; 5.0; 27.0; 59.0; 3.718; 18805; 
-5.884; 7.2768; 1.4524; 0.3166; -0.0629; -0.0778; 6.1721; 30.85; -36.07; 3.89; 282.2; -54.22; 75.59; 51.326; 59.93677; 10.509521; 249.1; 0.31275; 5.0; 27.0; 59.0; 3.718; 18917; 
-6.0462; 7.4181; 1.0778; 0.5585; -0.6395; -0.1535; 6.1721; 32.55; -33.87; 5.11; 282.2; -54.22; 75.59; 45.118; 59.93677; 10.509521; 249.1; 0.31275; 5.0; 27.0; 59.0; 3.718; 19017; 
-5.9358; 7.5374; 1.0008; 0.5585; -0.6395; -0.1535; 6.1721; 32.55; -33.87; 5.11; 282.2; -54.22; 75.59; 45.118; 59.93677; 10.509521; 249.1; 0.31275; 5.0; 27.0; 59.0; 3.718; 19123; 
-5.9358; 7.5374; 1.0008; 0.226; -0.3528; -0.0714; 6.1721; 36.05; -31.27; 3.89; 307.46; -52.49; 78.55; 45.118; 59.93677; 10.509521; 249.1; 0.31275; 5.0; 27.0; 59.0; 3.718; 19223; 
-5.9358; 7.5374; 1.0008; 0.226; -0.3528; -0.0714; 6.1721; 36.05; -31.27; 3.89; 307.46; -52.49; 78.55; 45.118; 59.93677; 10.509521; 249.1; 0.31275; 5.0; 27.0; 59.0; 3.718; 19324; 
-6.129; 7.4831; 1.1144; -0.1588; -0.178; 0.0842; 6.1002; 36.05; -31.27; 3.89; 307.46; -52.49; 78.55; 47.246; 59.93677; 10.509521; 249.1; 0.31275; 5.0; 27.0; 59.0; 3.718; 19427; 
-6.129; 7.4831; 1.1144; -0.1588; -0.178; 0.0842; 6.1002; 35.75; -31.47; 2.27; 307.46; -52.49; 78.55; 47.246; 59.93677; 10.509521; 249.1; 0.31275; 5.0; 27.0; 59.0; 3.718; 19528; 
-6.2248; 6.9114; 1.9647; 0.0554; -0.1908; -0.0618; 6.1002; 35.75; -31.47; 2.27; 307.46; -52.49; 78.55; 47.246; 59.93677; 10.509521; 249.1; 0.31275; 5.0; 27.0; 59.0; 3.718; 19628; 
-6.2248; 6.9114; 1.9647; 0.0554; -0.1908; -0.0618; 6.0291; 35.75; -31.47; 2.27; 307.46; -52.49; 78.55; 55.751; 59.93677; 10.509521; 249.1; 0.31275; 5.0; 27.0; 59.0; 3.718; 19728; 
-6.1342; 6.8548; 1.8995; 0.0703; -0.3347; -0.1386; 6.0291; 35.95; -30.97; -0.07; 306.7; -50.72; 74.4; 55.751; 59.93677; 10.509521; 249.1; 0.31275; 5.0; 27.0; 59.0; 3.718; 19849; 
-6.1342; 6.8548; 1.8995; 0.0703; -0.3347; -0.1386; 6.0291; 35.95; -30.97; -0.07; 306.7; -50.72; 74.4; 55.751; 59.93677; 10.509521; 249.1; 0.31275; 5.0; 27.0; 59.0; 3.718; 19949; 
-5.7992; 7.1928; 1.81; -0.1716; 0.1929; 0.1311; 5.8894; 36.35; -30.67; -2.1; 306.7; -50.72; 74.4; 52.469; 59.93677; 10.509521; 249.1; 0.31275; 5.0; 27.0; 59.0; 3.718; 20061; 
-5.7992; 7.1928; 1.81; -0.1716; 0.1929; 0.1311; 5.8894; 36.35; -30.67; -2.1; 306.7; -50.72; 74.4; 52.469; 59.93677; 10.509521; 249.1; 0.31275; 5.0; 27.0; 59.0; 3.718; 20161; 
-5.7031; 7.1749; 2.3167; -0.3699; 0.4093; 0.1812; 5.8894; 36.35; -30.67; -2.1; 306.7; -50.72; 74.4; 52.469; 59.93677; 10.509521; 249.1; 0.31275; 5.0; 27.0; 59.0; 3.718; 20285; 
-6.0363; 6.565; 2.3693; -0.3699; 0.4093; 0.1812; 5.0569; 34.45; -32.47; -1.19; 293.05; -49.79; 71.46; 52.469; 59.93677; 10.509521; 249.1; 0.31275; 5.0; 27.0; 59.0; 3.718; 20390; 
-6.0363; 6.565; 2.3693; 0.0107; 0.0394; 0.129; 5.0569; 34.45; -32.47; -1.19; 293.05; -49.79; 71.46; 62.994; 59.93677; 10.509521; 249.1; 0.31275; 5.0; 27.0; 59.0; 3.718; 20490; 
-5.5136; 7.9313; 2.7177; 0.0107; 0.0394; 0.129; 5.0569; 33.25; -34.37; -2.51; 293.05; -49.79; 71.46; 62.994; 59.93677; 10.509521; 249.1; 0.31275; 5.0; 27.0; 59.0; 3.718; 20611; 
-5.5136; 7.9313; 2.7177; 0.5606; 0.3901; 0.2142; 5.0569; 33.25; -34.37; -2.51; 293.05; -49.79; 71.46; 62.994; 59.93677; 10.509521; 249.1; 0.31275; 5.0; 27.0; 59.0; 3.718; 20711; 
-5.5353; 7.1596; 2.6772; 0.5606; 0.3901; 0.2142; 5.0569; 33.25; -34.37; -2.51; 293.05; -49.79; 71.46; 59.011; 59.93677; 10.509521; 249.1; 0.31275; 5.0; 27.0; 59.0; 3.718; 20835; 
-5.5353; 7.1596; 2.6772; 0.4626; -0.1737; -0.4967; 5.0569; 33.05; -33.67; 1.15; 274.1; -50.5; 64.76; 59.011; 59.93677; 10.509521; 249.1; 0.31275; 5.0; 27.0; 59.0; 3.718; 20944; 
-5.5048; 6.7733; 2.5896; 0.4626; -0.1737; -0.4967; 5.0569; 33.05; -33.67; 1.15; 274.1; -50.5; 64.76; 59.011; 59.93677; 10.509521; 249.1; 0.31275; 5.0; 27.0; 59.0; 3.718; 21068; 
-5.5048; 6.7733; 2.5896; 0.1055; -0.0373; 0.1258; 5.0569; 32.85; -33.87; 1.05; 274.1; -50.5; 64.76; 76.189; 59.93677; 10.509521; 249.1; 0.31275; 5.0; 27.0; 59.0; 3.718; 21219; 
-5.6952; 7.8319; 2.2197; -0.0266; -0.0714; 0.1364; 5.0569; 32.85; -33.87; 1.05; 274.1; -50.5; 64.76; 76.189; 59.93677; 10.509521; 249.1; 0.31275; 5.0; 27.0; 59.0; 3.718; 21363; 
-5.6952; 7.8319; 2.2197; -0.0266; -0.0714; 0.1364; 5.0569; 31.55; -35.97; -0.37; 275.33; -52.19; 66.84; 76.189; 59.93677; 10.509521; 249.1; 0.31275; 5.0; 27.0; 59.0; 3.718; 21465; 
-5.1258; 8.1709; 1.8548; -0.1631; -0.1876; -0.324; 5.0569; 31.55; -35.97; -0.37; 275.33; -52.19; 66.84; 76.013; 59.93677; 10.509521; 249.1; 0.31275; 5.0; 27.0; 59.0; 3.718; 21566; 
-5.1258; 8.1709; 1.8548; -0.1631; -0.1876; -0.324; 4.3421; 32.35; -35.37; 0.34; 275.33; -52.19; 66.84; 76.013; 59.93677; 10.509521; 249.1; 0.31275; 5.0; 27.0; 59.0; 3.718; 21681; 
-5.3933; 7.6195; 2.0403; -0.016; 0.0171; 0.0778; 4.3421; 32.35; -35.37; 0.34; 275.33; -52.19; 66.84; 76.013; 59.93677; 10.509521; 249.1; 0.31275; 5.0; 27.0; 59.0; 3.718; 21787; 
-5.3933; 7.6195; 2.0403; -0.016; 0.0171; 0.0778; 4.3421; 32.35; -35.37; 0.34; 275.33; -52.19; 66.84; 74.063; 59.93677; 10.509521; 249.1; 0.31275; 5.0; 27.0; 59.0; 3.718; 21887; 
-5.2261; 8.0827; 2.0754; 0.1119; -0.1268; -0.0565; 4.3421; 32.05; -35.47; 1.05; 286.51; -54.54; 68.82; 74.063; 59.93677; 10.509521; 249.1; 0.31275; 5.0; 27.0; 59.0; 3.718; 21987; 
-5.2261; 8.0827; 2.0754; 0.1119; -0.1268; -0.0565; 4.3421; 32.05; -35.47; 1.05; 286.51; -54.54; 68.82; 74.063; 59.93677; 10.509521; 249.1; 0.31275; 5.0; 27.0; 59.0; 3.718; 22087; 
-5.4849; 7.6507; 1.8171; 0.0234; 0.0608; -0.0469; 6.4685; 32.05; -35.47; 1.05; 286.51; -54.54; 68.82; 59.242; 59.93677; 10.509521; 249.1; 0.31275; 5.0; 27.0; 59.0; 3.718; 22188; 
-5.4849; 7.6507; 1.8171; 0.0234; 0.0608; -0.0469; 6.4685; 32.75; -34.67; 2.47; 286.51; -54.54; 68.82; 59.242; 59.93677; 10.509521; 249.1; 0.31275; 5.0; 27.0; 59.0; 3.718; 22288; 
-5.4776; 7.6757; 1.7611; -0.0874; 0.0874; 0.0021; 6.4685; 32.75; -34.67; 2.47; 286.51; -54.54; 68.82; 59.242; 59.93677; 10.509521; 249.1; 0.31275; 5.0; 27.0; 59.0; 3.718; 22389; 
-5.4776; 7.6757; 1.7611; -0.0874; 0.0874; 0.0021; 6.5447; 32.95; -34.27; 1.96; 295.74; -54.77; 72.73; 59.242; 59.93677; 10.509521; 249.1; 0.31275; 5.0; 27.0; 59.0; 3.718; 22507; 
-5.8804; 7.4087; 1.6461; 0.1215; -0.1343; 0.0053; 6.5447; 32.95; -34.27; 1.96; 295.74; -54.77; 72.73; 62.644; 59.93677; 10.509521; 249.1; 0.31275; 5.0; 27.0; 59.0; 3.718; 22607; 
-5.8804; 7.4087; 1.6461; 0.1215; -0.1343; 0.0053; 6.5447; 32.95; -34.27; 1.96; 295.74; -54.77; 72.73; 62.644; 59.93677; 10.509521; 249.1; 0.31275; 5.0; 27.0; 59.0; 3.718; 22707; 
-5.5332; 7.8233; 1.7924; -0.0021; -0.0586; 0.0682; 6.5447; 32.95; -33.97; 1.35; 295.74; -54.77; 72.73; 62.644; 59.93677; 10.509521; 249.1; 0.31275; 5.0; 27.0; 59.0; 3.718; 22818; 
-5.5332; 7.8233; 1.7924; -0.0021; -0.0586; 0.0682; 6.5447; 32.95; -33.97; 1.35; 295.74; -54.77; 72.73; 54.023; 59.93677; 10.509521; 249.1; 0.31275; 5.0; 27.0; 59.0; 3.718; 22919; 
-5.3822; 7.6048; 1.9757; 0.0277; -0.1503; -0.0043; 6.5447; 32.95; -33.97; 1.35; 295.74; -54.77; 72.73; 54.023; 59.93677; 10.509521; 249.1; 0.31275; 5.0; 27.0; 59.0; 3.718; 23019; 
-5.3822; 7.6048; 1.9757; 0.0277; -0.1503; -0.0043; 6.5447; 32.65; -34.47; 1.56; 293.96; -54.04; 73.09; 54.023; 59.93677; 10.509521; 249.1; 0.31275; 5.0; 27.0; 59.0; 3.718; 23119; 
-5.6677; 7.4614; 1.7475; -0.0863; 0.1482; 0.1801; 6.5447; 32.65; -34.47; 1.56; 293.96; -54.04; 73.09; 54.023; 59.93677; 10.509521; 249.1; 0.31275; 5.0; 27.0; 59.0; 3.718; 23229; 
-5.6677; 7.4614; 1.7475; -0.0863; 0.1482; 0.1801; 6.5447; 32.25; -35.07; -0.37; 293.96; -54.04; 73.09; 39.961; 59.93677; 10.509521; 249.1; 0.31275; 5.0; 27.0; 59.0; 3.718; 23345; 
-5.5286; 7.8299; 2.0635; -0.0725; -0.2174; -0.0181; 6.5447; 32.25; -35.07; -0.37; 293.96; -54.04; 73.09; 39.961; 59.93677; 10.509521; 249.1; 0.31275; 5.0; 27.0; 59.0; 3.718; 23446; 
-5.5286; 7.8299; 2.0635; -0.0725; -0.2174; -0.0181; 6.7; 32.25; -35.07; -0.37; 293.96; -54.04; 73.09; 39.961; 59.93677; 10.509521; 249.1; 0.31275; 5.0; 27.0; 59.0; 3.718; 23546; 
-5.3765; 7.4981; 2.6187; -0.0053; -0.0373; 0.0565; 6.7; 32.75; -35.07; -2.0; 293.07; -53.95; 67.29; 42.5; 59.93677; 10.509521; 249.1; 0.31275; 5.0; 27.0; 59.0; 3.718; 23654; 
-5.3765; 7.4981; 2.6187; -0.0053; -0.0373; 0.0565; 6.7; 32.75; -35.07; -2.0; 293.07; -53.95; 67.29; 42.5; 59.93677; 10.509521; 249.1; 0.31275; 5.0; 27.0; 59.0; 3.718; 23754; 
-5.2942; 7.6513; 2.6526; -0.0746; 0.0629; -0.0043; 6.6219; 32.75; -35.07; -2.0; 293.07; -53.95; 67.29; 42.5; 59.93677; 10.509521; 249.1; 0.31275; 5.0; 27.0; 59.0; 3.718; 23855; 
-5.2942; 7.6513; 2.6526; -0.0746; 0.0629; -0.0043; 6.6219; 33.15; -34.47; -3.42; 293.07; -53.95; 67.29; 47.585; 59.93677; 10.509521; 249.1; 0.31275; 5.0; 27.0; 59.0; 3.718; 23955; 
-5.46; 7.2102; 2.8601; -0.0512; 0.0; -0.0213; 6.6219; 33.15; -34.47; -3.42; 293.07; -53.95; 67.29; 47.585; 59.93677; 10.509521; 249.1; 0.31275; 5.0; 27.0; 59.0; 3.718; 24068; 
-5.46; 7.2102; 2.8601; -0.0512; 0.0; -0.0213; 6.6219; 33.45; -34.57; -2.51; 286.35; -52.65; 64.21; 47.585; 59.93677; 10.509521; 249.1; 0.31275; 5.0; 27.0; 59.0; 3.718; 24180; 
-5.6871; 7.3656; 2.5737; 0.0107; -0.0842; -0.0394; 6.6219; 33.45; -34.57; -2.51; 286.35; -52.65; 64.21; 47.585; 59.93677; 10.509521; 249.1; 0.31275; 5.0; 27.0; 59.0; 3.718; 24280; 
-5.6871; 7.3656; 2.5737; 0.0107; -0.0842; -0.0394; 6.6219; 33.45; -34.57; -2.51; 286.35; -52.65; 64.21; 43.493; 59.93677; 10.509521; 249.1; 0.31275; 5.0; 27.0; 59.0; 3.718; 24380; 
-5.5241; 7.2485; 2.4506; 0.1364; -0.0224; -0.0032; 6.6219; 33.85; -33.97; -2.41; 286.35; -52.65; 64.21; 43.493; 59.93677; 10.509521; 249.1; 0.31275; 5.0; 27.0; 59.0; 3.718; 24492; 
-5.5241; 7.2485; 2.4506; 0.1364; -0.0224; -0.0032; 6.4685; 33.85; -33.97; -2.41; 286.35; -52.65; 64.21; 43.493; 59.93677; 10.509521; 249.1; 0.31275; 5.0; 27.0; 59.0; 3.718; 24592; 
-5.624; 7.5202; 2.3485; -0.0437; 0.1023; 0.0245; 6.4685; 33.85; -33.97; -2.41; 286.35; -52.65; 64.21; 54.624; 59.93677; 10.509521; 249.1; 0.31275; 5.0; 27.0; 59.0; 3.718; 24694; 
-5.624; 7.5202; 2.3485; -0.0437; 0.1023; 0.0245; 6.4685; 33.65; -34.17; -1.09; 282.69; -51.67; 63.76; 54.624; 59.93677; 10.509521; 249.1; 0.31275; 5.0; 27.0; 59.0; 3.718; 24794; 
-5.5359; 7.5006; 2.5573; 0.2526; -0.1514; 0.0203; 6.4685; 33.65; -34.17; -1.09; 282.69; -51.67; 63.76; 54.624; 59.93677; 10.509521; 249.1; 0.31275; 5.0; 27.0; 59.0; 3.718; 24898; 
-5.5359; 7.5006; 2.5573; 0.2526; -0.1514; 0.0203; 6.5447; 33.65; -34.17; -1.09; 282.69; -51.67; 63.76; 54.624; 59.93677; 10.509521; 249.1; 0.31275; 5.0; 27.0; 59.0; 3.718; 24998; 
-5.3027; 7.0563; 2.3513; 0.0565; 0.0703; 0.0075; 6.5447; 33.15; -34.17; -0.78; 282.69; -51.67; 63.76; 65.094; 59.93677; 10.509521; 249.1; 0.31275; 5.0; 27.0; 59.0; 3.718; 25112; 
-5.3027; 7.0563; 2.3513; 0.0565; 0.0703; 0.0075; 6.5447; 33.15; -34.17; -0.78; 282.69; -51.67; 63.76; 65.094; 59.93677; 10.509521; 249.1; 0.31275; 5.0; 27.0; 59.0; 3.718; 25213; 
-5.8783; 7.3485; 1.9111; 0.1204; -0.0842; 0.0128; 6.5447; 33.85; -33.67; 1.56; 288.64; -53.37; 69.33; 65.094; 59.93677; 10.509521; 249.1; 0.31275; 5.0; 27.0; 59.0; 3.718; 25331; 
-5.8783; 7.3485; 1.9111; 0.1204; -0.0842; 0.0128; 6.5447; 33.85; -33.67; 1.56; 288.64; -53.37; 69.33; 47.414; 59.93677; 10.509521; 249.1; 0.31275; 5.0; 27.0; 59.0; 3.718; 25431; 
-5.5056; 7.4431; 1.6247; 0.2835; -0.1066; 0.0021; 6.5447; 33.85; -33.67; 1.56; 288.64; -53.37; 69.33; 47.414; 59.93677; 10.509521; 249.1; 0.31275; 5.0; 27.0; 59.0; 3.718; 25536; 
-5.5056; 7.4431; 1.6247; 0.2835; -0.1066; 0.0021; 6.5447; 34.05; -32.87; 2.27; 288.64; -53.37; 69.33; 47.414; 59.93677; 10.509521; 249.1; 0.31275; 5.0; 27.0; 59.0; 3.718; 25636; 
-5.4574; 7.7823; 1.3622; -0.211; 0.1418; 0.0959; 6.5447; 34.05; -32.87; 2.27; 288.64; -53.37; 69.33; 65.578; 59.93677; 10.509521; 249.1; 0.31275; 5.0; 27.0; 59.0; 3.718; 25766; 
-5.4574; 7.7823; 1.3622; -0.211; 0.1418; 0.0959; 6.5447; 32.65; -34.07; 2.06; 293.95; -53.51; 74.13; 65.578; 59.93677; 10.509521; 249.1; 0.31275; 5.0; 27.0; 59.0; 3.718; 25872; 
-5.5927; 7.6907; 1.5135; -0.2803; 0.1556; 0.049; 6.1002; 32.65; -34.07; 2.06; 293.95; -53.51; 74.13; 65.578; 59.93677; 10.509521; 249.1; 0.31275; 5.0; 27.0; 59.0; 3.718; 25972; 
-5.5927; 7.6907; 1.5135; -0.2803; 0.1556; 0.049; 6.1002; 32.65; -34.07; 2.06; 293.95; -53.51; 74.13; 65.578; 59.93677; 10.509521; 249.1; 0.31275; 5.0; 27.0; 59.0; 3.718; 26072; 
-5.7022; 7.4585; 1.8516; -0.0469; 0.0; 0.0469; 6.1002; 32.95; -34.27; 1.05; 293.95; -53.51; 74.13; 62.731; 59.93677; 10.509521; 249.1; 0.31275; 5.0; 27.0; 59.0; 3.718; 26174; 
-5.7022; 7.4585; 1.8516; -0.0469; 0.0; 0.0469; 6.1002; 32.95; -34.27; 1.05; 293.95; -53.51; 74.13; 62.731; 59.93677; 10.509521; 249.1; 0.31275; 5.0; 27.0; 59.0; 3.718; 26275; 
-5.4901; 7.3579; 1.9913; 0.0085; 0.0085; 0.0426; 6.1002; 32.75; -34.67; 0.84; 292.25; -54.05; 71.88; 62.731; 59.93677; 10.509521; 249.1; 0.31275; 5.0; 27.0; 59.0; 3.718; 26388; 
-5.4901; 7.3579; 1.9913; 0.0085; 0.0085; 0.0426; 6.1002; 32.75; -34.67; 0.84; 292.25; -54.05; 71.88; 42.004; 59.93677; 10.509521; 249.1; 0.31275; 5.0; 27.0; 59.0; 3.718; 26515; 
-5.1292; 7.889; 2.0203; -0.0416; -0.211; -0.049; 6.1002; 32.85; -34.17; -0.98; 292.25; -54.05; 71.88; 42.004; 59.93677; 10.509521; 249.1; 0.31275; 5.0; 27.0; 59.0; 3.718; 26633; 
-5.1292; 7.889; 2.0203; -0.0416; -0.211; -0.049; 6.1002; 32.85; -34.17; -0.98; 292.25; -54.05; 71.88; 42.004; 59.93677; 10.509521; 249.1; 0.31275; 5.0; 27.0; 59.0; 3.718; 26751; 
-5.165; 7.6069; 2.3142; -0.0831; 0.016; 0.032; 6.1002; 32.75; -34.97; -1.8; 296.23; -53.82; 69.3; 37.551; 59.93677; 10.509521; 249.1; 0.31275; 5.0; 27.0; 59.0; 3.718; 26882; 
-5.33; 7.5834; 2.4982; -0.0576; -0.032; 0.0309; 6.1002; 32.75; -34.97; -1.8; 296.23; -53.82; 69.3; 37.551; 59.93677; 10.509521; 249.1; 0.31275; 5.0; 27.0; 59.0; 3.718; 26996; 
-5.33; 7.5834; 2.4982; -0.0576; -0.032; 0.0309; 6.1002; 32.75; -34.97; -1.8; 296.23; -53.82; 69.3; 37.551; 59.93677; 10.509521; 249.1; 0.31275; 5.0; 27.0; 59.0; 3.718; 27098; 
-5.0875; 7.6841; 2.5249; 0.0128; -0.0821; -0.0053; 6.1002; 32.75; -35.27; -2.91; 296.23; -53.82; 69.3; 38.478; 59.93677; 10.509521; 249.1; 0.31275; 5.0; 27.0; 59.0; 3.718; 27215; 
-5.0875; 7.6841; 2.5249; 0.0128; -0.0821; -0.0053; 6.5447; 32.75; -35.27; -2.91; 296.23; -53.82; 69.3; 38.478; 59.93677; 10.509521; 249.1; 0.31275; 5.0; 27.0; 59.0; 3.718; 27315; 
-5.2125; 7.6715; 2.7392; -0.0394; -0.0021; -0.0032; 6.5447; 32.65; -34.67; -2.91; 289.68; -53.79; 63.7; 38.478; 59.93677; 10.509521; 249.1; 0.31275; 5.0; 27.0; 59.0; 3.718; 27436; 
-5.2125; 7.6715; 2.7392; -0.0394; -0.0021; -0.0032; 6.5447; 32.65; -34.67; -2.91; 289.68; -53.79; 63.7; 61.55; 59.93677; 10.509521; 249.1; 0.31275; 5.0; 27.0; 59.0; 3.718; 27536; 
-5.1917; 8.1402; 2.2413; -0.2654; -0.0469; -0.0799; 6.7; 32.65; -34.67; -2.91; 289.68; -53.79; 63.7; 61.55; 59.93677; 10.509521; 249.1; 0.31275; 5.0; 27.0; 59.0; 3.718; 27638; 
-5.1917; 8.1402; 2.2413; -0.2654; -0.0469; -0.0799; 6.7; 33.45; -33.97; -3.83; 289.68; -53.79; 63.7; 61.55; 59.93677; 10.509521; 249.1; 0.31275; 5.0; 27.0; 59.0; 3.718; 27738; 
-5.7299; 7.1572; 2.4341; 0.2995; -0.0181; 0.1247; 6.7; 33.45; -33.97; -3.83; 289.68; -53.79; 63.7; 65.576; 59.93677; 10.509521; 249.1; 0.31275; 5.0; 27.0; 59.0; 3.718; 27846; 
-5.7299; 7.1572; 2.4341; 0.2995; -0.0181; 0.1247; 6.7; 33.45; -33.97; -3.83; 289.68; -53.79; 63.7; 65.576; 59.93677; 10.509521; 249.1; 0.31275; 5.0; 27.0; 59.0; 3.718; 27946; 
-5.5514; 7.2253; 2.7648; 0.0416; -0.2494; -0.1471; 6.3931; 33.35; -33.47; -4.74; 294.32; -52.51; 62.27; 65.576; 59.93677; 10.509521; 249.1; 0.31275; 5.0; 27.0; 59.0; 3.718; 28051; 
-5.5514; 7.2253; 2.7648; 0.0416; -0.2494; -0.1471; 6.3931; 33.35; -33.47; -4.74; 294.32; -52.51; 62.27; 65.576; 59.93677; 10.509521; 249.1; 0.31275; 5.0; 27.0; 59.0; 3.718; 28151; 
-5.7037; 7.4781; 2.5555; 0.2046; -0.0661; 0.0533; 6.3931; 34.05; -33.17; -3.32; 294.32; -52.51; 62.27; 40.712; 59.93677; 10.509521; 249.1; 0.31275; 5.0; 27.0; 59.0; 3.718; 28279; 
-5.7037; 7.4781; 2.5555; 0.2046; -0.0661; 0.0533; 6.3931; 34.05; -33.17; -3.32; 294.32; -52.51; 62.27; 40.712; 59.93677; 10.509521; 249.1; 0.31275; 5.0; 27.0; 59.0; 3.718; 28380; 
-5.6361; 7.5051; 2.0162; 0.2526; -0.307; -0.097; 6.3931; 34.05; -33.17; -3.32; 294.32; -52.51; 62.27; 40.712; 59.93677; 10.509521; 249.1; 0.31275; 5.0; 27.0; 59.0; 3.718; 28487; 
-5.6361; 7.5051; 2.0162; 0.2526; -0.307; -0.097; 6.3931; 34.55; -32.67; -2.41; 288.24; -51.75; 62.68; 58.235; 59.93677; 10.509521; 249.1; 0.31275; 5.0; 27.0; 59.0; 3.718; 28587; 
-5.2158; 7.6277; 2.1573; 0.162; -0.0512; 0.0565; 6.5447; 34.55; -32.67; -2.41; 288.24; -51.75; 62.68; 58.235; 59.93677; 10.509521; 249.1; 0.31275; 5.0; 27.0; 59.0; 3.718; 28691; 
-5.2158; 7.6277; 2.1573; 0.162; -0.0512; 0.0565; 6.5447; 34.55; -32.67; -2.41; 288.24; -51.75; 62.68; 58.235; 59.93677; 10.509521; 249.1; 0.31275; 5.0; 27.0; 59.0; 3.718; 28792; 
-5.352; 7.563; 2.2775; 0.0597; 0.0608; 0.0437; 6.5447; 34.65; -31.87; -2.61; 288.24; -51.75; 62.68; 58.235; 59.93677; 10.509521; 249.1; 0.31275; 5.0; 27.0; 59.0; 3.718; 28926; 
-5.352; 7.563; 2.2775; 0.0597; 0.0608; 0.0437; 6.5447; 34.65; -31.87; -2.61; 288.24; -51.75; 62.68; 40.763; 59.93677; 10.509521; 249.1; 0.31275; 5.0; 27.0; 59.0; 3.718; 29026; 
-5.5328; 7.623; 2.0453; 0.0298; 0.1471; 0.0117; 6.5447; 35.05; -32.57; -1.29; 304.02; -54.09; 69.79; 40.763; 59.93677; 10.509521; 249.1; 0.31275; 5.0; 27.0; 59.0; 3.718; 29126; 
-5.5328; 7.623; 2.0453; 0.0298; 0.1471; 0.0117; 6.3931; 35.05; -32.57; -1.29; 304.02; -54.09; 69.79; 40.763; 59.93677; 10.509521; 249.1; 0.31275; 5.0; 27.0; 59.0; 3.718; 29226; 
-5.6443; 7.547; 1.6554; 0.0288; -0.1087; -0.081; 6.3931; 35.05; -32.57; -1.29; 304.02; -54.09; 69.79; 40.931; 59.93677; 10.509521; 249.1; 0.31275; 5.0; 27.0; 59.0; 3.718; 29326; 
-5.6443; 7.547; 1.6554; 0.0288; -0.1087; -0.081; 6.3931; 35.75; -31.37; -1.49; 304.02; -54.09; 69.79; 40.931; 59.93677; 10.509521; 249.1; 0.31275; 5.0; 27.0; 59.0; 3.718; 29426; 
-5.4671; 7.7383; 2.0202; -0.0522; 0.0288; -0.1108; 6.3931; 35.75; -31.37; -1.49; 304.02; -54.09; 69.79; 40.931; 59.93677; 10.509521; 249.1; 0.31275; 5.0; 27.0; 59.0; 3.718; 29538; 
-5.4671; 7.7383; 2.0202; -0.0522; 0.0288; -0.1108; 6.3931; 37.05; -30.07; -1.9; 319.72; -53.32; 72.52; 53.229; 59.93677; 10.509521; 249.1; 0.31275; 5.0; 27.0; 59.0; 3.718; 29661; 
-6.1509; 7.0295; 1.777; -0.064; -0.0139; 0.0277; 6.3931; 37.05; -30.07; -1.9; 319.72; -53.32; 72.52; 53.229; 59.93677; 10.509521; 249.1; 0.31275; 5.0; 27.0; 59.0; 3.718; 29761; 
-6.1509; 7.0295; 1.777; -0.064; -0.0139; 0.0277; 6.3931; 37.05; -30.07; -1.9; 319.72; -53.32; 72.52; 53.229; 59.93677; 10.509521; 249.1; 0.31275; 5.0; 27.0; 59.0; 3.718; 29862; 
-5.7018; 7.2131; 1.9087; -0.0597; 0.0298; 0.0565; 6.3931; 36.05; -30.27; -1.59; 319.72; -53.32; 72.52; 53.229; 59.93677; 10.509521; 249.1; 0.31275; 5.0; 27.0; 59.0; 3.718; 29971; 
-5.7018; 7.2131; 1.9087; -0.0597; 0.0298; 0.0565; 6.3186; 36.05; -30.27; -1.59; 319.72; -53.32; 72.52; 40.622; 59.93677; 10.509521; 249.1; 0.31275; 5.0; 27.0; 59.0; 3.718; 30071; 
-5.8855; 7.1138; 1.8678; 0.0362; 0.0671; 0.0448; 6.3186; 36.05; -30.27; -1.59; 319.72; -53.32; 72.52; 40.622; 59.93677; 10.509521; 249.1; 0.31275; 5.0; 27.0; 59.0; 3.718; 30171; 
-5.8855; 7.1138; 1.8678; 0.0362; 0.0671; 0.0448; 6.3186; 36.05; -30.47; -1.19; 307.8; -51.24; 71.57; 40.622; 59.93677; 10.509521; 249.1; 0.31275; 5.0; 27.0; 59.0; 3.718; 30272; 
-5.7403; 7.2225; 2.1358; 0.1066; -0.0405; 0.0171; 6.4685; 36.05; -30.47; -1.19; 307.8; -51.24; 71.57; 40.55; 59.93677; 10.509521; 249.1; 0.31275; 5.0; 27.0; 59.0; 3.718; 30372; 
-5.7403; 7.2225; 2.1358; 0.1066; -0.0405; 0.0171; 6.4685; 36.05; -30.47; -1.19; 307.8; -51.24; 71.57; 40.55; 59.93677; 10.509521; 249.1; 0.31275; 5.0; 27.0; 59.0; 3.718; 30472; 
-5.5636; 7.4328; 2.0305; -0.1535; 0.0117; 0.0671; 6.4685; 35.75; -30.37; -2.1; 307.8; -51.24; 71.57; 40.55; 59.93677; 10.509521; 249.1; 0.31275; 5.0; 27.0; 59.0; 3.718; 30578; 
-5.5636; 7.4328; 2.0305; -0.1535; 0.0117; 0.0671; 6.4685; 35.75; -30.37; -2.1; 307.8; -51.24; 71.57; 40.425; 59.93677; 10.509521; 249.1; 0.31275; 5.0; 27.0; 59.0; 3.718; 30678; 
-5.8206; 7.0433; 2.2361; -0.1716; 0.0959; 0.065; 6.4685; 35.85; -31.17; -2.41; 305.46; -51.46; 69.56; 40.425; 59.93677; 10.509521; 249.1; 0.31275; 5.0; 27.0; 59.0; 3.718; 30813; 
-5.8206; 7.0433; 2.2361; -0.1716; 0.0959; 0.065; 6.4685; 35.85; -31.17; -2.41; 305.46; -51.46; 69.56; 40.425; 59.93677; 10.509521; 249.1; 0.31275; 5.0; 27.0; 59.0; 3.718; 30914; 
-6.144; 7.045; 2.4173; -0.1695; 0.1524; 0.0384; 6.4685; 35.85; -31.17; -2.41; 305.46; -51.46; 69.56; 40.425; 59.93677; 10.509521; 249.1; 0.31275; 5.0; 27.0; 59.0; 3.718; 31014; 
-6.144; 7.045; 2.4173; -0.1695; 0.1524; 0.0384; 6.4685; 35.15; -31.67; -1.9; 305.46; -51.46; 69.56; 40.573; 59.93677; 10.509521; 249.1; 0.31275; 5.0; 27.0; 59.0; 3.718; 31114; 
-5.9602; 7.0463; 2.2741; 0.0171; -0.0554; -0.0043; 6.4685; 35.15; -31.67; -1.9; 305.46; -51.46; 69.56; 40.573; 59.93677; 10.509521; 249.1; 0.31275; 5.0; 27.0; 59.0; 3.718; 31218; 
-5.9602; 7.0463; 2.2741; 0.0171; -0.0554; -0.0043; 6.7; 35.15; -31.67; -1.9; 305.46; -51.46; 69.56; 40.573; 59.93677; 10.509521; 249.1; 0.31275; 5.0; 27.0; 59.0; 3.718; 31318; 
-5.9106; 7.1595; 2.5097; 0.0522; -0.0512; 0.0522; 6.7; 35.45; -31.47; -2.61; 301.02; -50.75; 67.65; 38.318; 59.93677; 10.509521; 249.1; 0.31275; 5.0; 27.0; 59.0; 3.718; 31428; 
-5.9106; 7.1595; 2.5097; 0.0522; -0.0512; 0.0522; 6.7; 35.45; -31.47; -2.61; 301.02; -50.75; 67.65; 38.318; 59.93677; 10.509521; 249.1; 0.31275; 5.0; 27.0; 59.0; 3.718; 31529; 
-5.8346; 7.2786; 2.2708; 0.0011; 0.0853; 0.033; 6.7; 35.25; -31.87; -2.2; 301.02; -50.75; 67.65; 38.318; 59.93677; 10.509521; 249.1; 0.31275; 5.0; 27.0; 59.0; 3.718; 31643; 
-5.8346; 7.2786; 2.2708; 0.0011; 0.0853; 0.033; 6.7; 35.25; -31.87; -2.2; 301.02; -50.75; 67.65; 38.318; 59.93677; 10.509521; 249.1; 0.31275; 5.0; 27.0; 59.0; 3.718; 31743; 
-5.7072; 7.4008; 2.5736; -0.0213; -0.0533; -0.0053; 6.7; 35.25; -31.87; -2.2; 301.02; -50.75; 67.65; 40.39; 59.93677; 10.509521; 249.1; 0.31275; 5.0; 27.0; 59.0; 3.718; 31860; 
-5.7072; 7.4008; 2.5736; -0.0213; -0.0533; -0.0053; 6.7; 35.05; -30.97; -3.02; 299.43; -50.69; 66.92; 40.39; 59.93677; 10.509521; 249.1; 0.31275; 5.0; 27.0; 59.0; 3.718; 31973; 
-5.6476; 7.0646; 2.6119; 0.0181; -0.1705; -0.1396; 6.7; 35.05; -30.97; -3.02; 299.43; -50.69; 66.92; 40.39; 59.93677; 10.509521; 249.1; 0.31275; 5.0; 27.0; 59.0; 3.718; 32073; 
-5.6476; 7.0646; 2.6119; 0.0181; -0.1705; -0.1396; 6.7; 36.15; -30.67; -4.03; 299.43; -50.69; 66.92; 44.062; 59.93677; 10.509521; 249.1; 0.31275; 5.0; 27.0; 59.0; 3.718; 32203; 
-5.8271; 7.3219; 2.7941; -0.097; -0.1087; -0.0053; 6.7; 36.15; -30.67; -4.03; 299.43; -50.69; 66.92; 44.062; 59.93677; 10.509521; 249.1; 0.31275; 5.0; 27.0; 59.0; 3.718; 32316; 
-5.8271; 7.3219; 2.7941; -0.097; -0.1087; -0.0053; 6.8589; 35.55; -30.57; -4.44; 294.74; -49.33; 63.88; 44.062; 59.93677; 10.509521; 249.1; 0.31275; 5.0; 27.0; 59.0; 3.718; 32442; 
-6.1088; 6.8156; 2.407; 0.0831; 0.1045; 0.0352; 6.8589; 35.55; -30.57; -4.44; 294.74; -49.33; 63.88; 48.655; 59.93677; 10.509521; 249.1; 0.31275; 5.0; 27.0; 59.0; 3.718; 32542; 
-6.1088; 6.8156; 2.407; 0.0831; 0.1045; 0.0352; 5.6196; 35.55; -30.57; -4.44; 294.74; -49.33; 63.88; 48.655; 59.93677; 10.509521; 249.1; 0.31275; 5.0; 27.0; 59.0; 3.718; 32660; 
-5.8003; 7.3708; 2.6877; -0.1172; -0.0778; 0.033; 5.6196; 35.45; -30.67; -4.64; 294.74; -49.33; 63.88; 48.655; 59.93677; 10.509521; 249.1; 0.31275; 5.0; 27.0; 59.0; 3.718; 32760; 
-5.8003; 7.3708; 2.6877; -0.1172; -0.0778; 0.033; 5.6196; 35.45; -30.67; -4.64; 294.74; -49.33; 63.88; 63.156; 59.93677; 10.509521; 249.1; 0.31275; 5.0; 27.0; 59.0; 3.718; 32860; 
-5.919; 7.0152; 2.6288; 0.0981; -0.0917; -0.0021; 5.6196; 35.05; -30.67; -4.64; 297.2; -50.01; 63.37; 63.156; 59.93677; 10.509521; 249.1; 0.31275; 5.0; 27.0; 59.0; 3.718; 32961; 
-5.919; 7.0152; 2.6288; 0.0981; -0.0917; -0.0021; 5.6196; 35.05; -30.67; -4.64; 297.2; -50.01; 63.37; 63.156; 59.93677; 10.509521; 249.1; 0.31275; 5.0; 27.0; 59.0; 3.718; 33061; 
-5.6103; 7.0691; 2.629; 0.4615; -0.2515; 0.0831; 6.5447; 35.05; -30.67; -4.64; 297.2; -50.01; 63.37; 45.044; 59.93677; 10.509521; 249.1; 0.31275; 5.0; 27.0; 59.0; 3.718; 33161; 
-5.6103; 7.0691; 2.629; 0.4615; -0.2515; 0.0831; 6.5447; 34.35; -32.07; -4.03; 297.2; -50.01; 63.37; 45.044; 59.93677; 10.509521; 249.1; 0.31275; 5.0; 27.0; 59.0; 3.718; 33261; 
-5.7313; 7.4371; 2.7848; -0.0203; 0.0107; 0.2014; 6.0291; 34.35; -32.07; -4.03; 297.2; -50.01; 63.37; 45.044; 59.93677; 10.509521; 249.1; 0.31275; 5.0; 27.0; 59.0; 3.718; 33378; 
-5.7313; 7.4371; 2.7848; -0.0203; 0.0107; 0.2014; 6.0291; 34.35; -32.07; -4.03; 297.2; -50.01; 63.37; 45.044; 59.93677; 10.509521; 249.1; 0.31275; 5.0; 27.0; 59.0; 3.718; 33479; 
-5.2469; 7.4005; 2.7722; -0.1567; 0.2356; 0.1268; 6.0291; 33.75; -32.87; -4.03; 296.21; -52.44; 64.15; 47.606; 59.93677; 10.509521; 249.1; 0.31275; 5.0; 27.0; 59.0; 3.718; 33579; 
-5.2469; 7.4005; 2.7722; -0.1567; 0.2356; 0.1268; 6.2449; 33.75; -32.87; -4.03; 296.21; -52.44; 64.15; 47.606; 59.93677; 10.509521; 249.1; 0.31275; 5.0; 27.0; 59.0; 3.718; 33679; 
-5.3339; 7.5617; 2.4513; 0.0661; 0.0394; 0.0949; 6.2449; 32.75; -34.47; -2.91; 296.21; -52.44; 64.15; 47.606; 59.93677; 10.509521; 249.1; 0.31275; 5.0; 27.0; 59.0; 3.718; 33787; 
-5.3339; 7.5617; 2.4513; 0.0661; 0.0394; 0.0949; 6.4685; 32.75; -34.47; -2.91; 296.21; -52.44; 64.15; 42.634; 59.93677; 10.509521; 249.1; 0.31275; 5.0; 27.0; 59.0; 3.718; 33902; 
-5.0833; 7.6947; 2.5252; -0.033; 0.0203; 0.0139; 6.4685; 32.75; -34.47; -2.91; 296.21; -52.44; 64.15; 42.634; 59.93677; 10.509521; 249.1; 0.31275; 5.0; 27.0; 59.0; 3.718; 34002; 
-5.0833; 7.6947; 2.5252; -0.033; 0.0203; 0.0139; 6.4685; 32.95; -34.47; -1.09; 289.71; -54.27; 64.73; 42.634; 59.93677; 10.509521; 249.1; 0.31275; 5.0; 27.0; 59.0; 3.718; 34102; 
-5.928; 7.4021; 2.4946; -0.0437; 0.1204; 0.0192; 6.779; 32.95; -34.47; -1.09; 289.71; -54.27; 64.73; 42.634; 59.93677; 10.509521; 249.1; 0.31275; 5.0; 27.0; 59.0; 3.718; 34202; 
-5.928; 7.4021; 2.4946; -0.0437; 0.1204; 0.0192; 6.779; 32.95; -34.47; -1.09; 289.71; -54.27; 64.73; 63.011; 59.93677; 10.509521; 249.1; 0.31275; 5.0; 27.0; 59.0; 3.718; 34302; 
-5.5799; 7.4822; 2.1364; 0.0746; -0.0842; -0.0032; 6.779; 33.95; -33.87; -1.29; 289.71; -54.27; 64.73; 63.011; 59.93677; 10.509521; 249.1; 0.31275; 5.0; 27.0; 59.0; 3.718; 34402; 
-5.5799; 7.4822; 2.1364; 0.0746; -0.0842; -0.0032; 6.779; 33.95; -33.87; -1.29; 289.71; -54.27; 64.73; 63.011; 59.93677; 10.509521; 249.1; 0.31275; 5.0; 27.0; 59.0; 3.718; 34503; 
-5.4457; 7.6918; 2.1937; -0.0075; -0.0554; 0.0181; 6.779; 33.95; -33.87; -1.29; 289.71; -54.27; 64.73; 44.032; 59.93677; 10.509521; 249.1; 0.31275; 5.0; 27.0; 59.0; 3.718; 34606; 
-5.4457; 7.6918; 2.1937; -0.0075; -0.0554; 0.0181; 6.779; 33.45; -33.87; -1.09; 286.84; -52.9; 65.79; 44.032; 59.93677; 10.509521; 249.1; 0.31275; 5.0; 27.0; 59.0; 3.718; 34707; 
-6.0045; 7.1387; 2.2355; 0.1631; -0.1865; 0.0576; 6.779; 33.45; -33.87; -1.09; 286.84; -52.9; 65.79; 44.032; 59.93677; 10.509521; 249.1; 0.31275; 5.0; 27.0; 59.0; 3.718; 34828; 
-6.0045; 7.1387; 2.2355; 0.1631; -0.1865; 0.0576; 6.779; 33.85; -32.87; -2.61; 286.84; -52.9; 65.79; 40.731; 59.93677; 10.509521; 249.1; 0.31275; 5.0; 27.0; 59.0; 3.718; 34928; 
-5.3774; 7.6705; 2.4197; 0.0469; -0.1844; 0.0703; 6.7; 33.85; -32.87; -2.61; 286.84; -52.9; 65.79; 40.731; 59.93677; 10.509521; 249.1; 0.31275; 5.0; 27.0; 59.0; 3.718; 35028; 
-5.3774; 7.6705; 2.4197; 0.0469; -0.1844; 0.0703; 6.7; 33.85; -32.87; -2.61; 286.84; -52.9; 65.79; 40.731; 59.93677; 10.509521; 249.1; 0.31275; 5.0; 27.0; 59.0; 3.718; 35128; 
-5.4594; 7.6425; 2.4353; -0.0586; -0.1876; 0.048; 6.7; 33.85; -33.27; -5.05; 307.82; -53.6; 66.24; 40.731; 59.93677; 10.509521; 249.1; 0.31275; 5.0; 27.0; 59.0; 3.718; 35232; 
-5.4594; 7.6425; 2.4353; -0.0586; -0.1876; 0.048; 6.7; 33.85; -33.27; -5.05; 307.82; -53.6; 66.24; 36.344; 59.93677; 10.509521; 249.1; 0.31275; 5.0; 27.0; 59.0; 3.718; 35333; 
-4.9845; 7.6277; 2.9486; -0.1695; 0.0618; 0.0789; 6.7; 33.85; -33.27; -5.05; 307.82; -53.6; 66.24; 36.344; 59.93677; 10.509521; 249.1; 0.31275; 5.0; 27.0; 59.0; 3.718; 35433; 
-4.9845; 7.6277; 2.9486; -0.1695; 0.0618; 0.0789; 6.7; 33.25; -33.57; -5.45; 307.82; -53.6; 66.24; 36.344; 59.93677; 10.509521; 249.1; 0.31275; 5.0; 27.0; 59.0; 3.718; 35533; 
-5.2146; 7.781; 2.8971; -0.0671; 0.1396; 0.1812; 6.7; 33.25; -33.57; -5.45; 307.82; -53.6; 66.24; 36.344; 59.93677; 10.509521; 249.1; 0.31275; 5.0; 27.0; 59.0; 3.718; 35640; 
-5.2146; 7.781; 2.8971; -0.0671; 0.1396; 0.1812; 6.7; 32.85; -34.17; -4.03; 291.42; -53.81; 61.32; 64.599; 59.93677; 10.509521; 249.1; 0.31275; 5.0; 27.0; 59.0; 3.718; 35766; 
-5.4906; 7.8238; 2.2392; 0.2345; -0.4924; -0.0554; 6.6219; 32.85; -34.17; -4.03; 291.42; -53.81; 61.32; 64.599; 59.93677; 10.509521; 249.1; 0.31275; 5.0; 27.0; 59.0; 3.718; 35867; 
-5.4906; 7.8238; 2.2392; 0.2345; -0.4924; -0.0554; 6.6219; 32.85; -34.17; -4.03; 291.42; -53.81; 61.32; 64.599; 59.93677; 10.509521; 249.1; 0.31275; 5.0; 27.0; 59.0; 3.718; 35967; 
-5.1924; 7.546; 2.5857; 0.0608; -0.0693; 0.0053; 6.6219; 33.55; -33.57; -5.25; 291.42; -53.81; 61.32; 57.961; 59.93677; 10.509521; 249.1; 0.31275; 5.0; 27.0; 59.0; 3.718; 36068; 
-5.1924; 7.546; 2.5857; 0.0608; -0.0693; 0.0053; 6.6219; 33.55; -33.57; -5.25; 291.42; -53.81; 61.32; 57.961; 59.93677; 10.509521; 249.1; 0.31275; 5.0; 27.0; 59.0; 3.718; 36168; 
-5.9334; 7.0773; 2.4832; 0.1652; -0.2142; -0.1204; 6.6219; 33.55; -33.57; -5.25; 291.42; -53.81; 61.32; 57.961; 59.93677; 10.509521; 249.1; 0.31275; 5.0; 27.0; 59.0; 3.718; 36276; 
-5.9334; 7.0773; 2.4832; 0.1652; -0.2142; -0.1204; 6.6219; 33.95; -32.87; -4.95; 302.21; -53.77; 63.3; 43.935; 59.93677; 10.509521; 249.1; 0.31275; 5.0; 27.0; 59.0; 3.718; 36376; 
-5.6412; 7.3473; 2.6408; 0.0394; -0.1418; 0.033; 6.6219; 33.95; -32.87; -4.95; 302.21; -53.77; 63.3; 43.935; 59.93677; 10.509521; 249.1; 0.31275; 5.0; 27.0; 59.0; 3.718; 36476; 
-5.6412; 7.3473; 2.6408; 0.0394; -0.1418; 0.033; 6.6219; 33.95; -32.87; -4.95; 302.21; -53.77; 63.3; 43.935; 59.93677; 10.509521; 249.1; 0.31275; 5.0; 27.0; 59.0; 3.718; 36576; 
-5.0412; 7.4796; 2.611; 0.0117; 0.0234; 0.0341; 6.6219; 34.55; -32.97; -5.45; 302.21; -53.77; 63.3; 43.935; 59.93677; 10.509521; 249.1; 0.31275; 5.0; 27.0; 59.0; 3.718; 36677; 
-5.0412; 7.4796; 2.611; 0.0117; 0.0234; 0.0341; 6.7; 34.55; -32.97; -5.45; 302.21; -53.77; 63.3; 50.505; 59.93677; 10.509521; 249.1; 0.31275; 5.0; 27.0; 59.0; 3.718; 36777; 
-5.8221; 6.9858; 2.5799; 0.0544; -0.0703; -0.1247; 6.7; 34.35; -32.17; -5.15; 304.52; -53.3; 64.04; 50.505; 59.93677; 10.509521; 249.1; 0.31275; 5.0; 27.0; 59.0; 3.718; 36911; 
-5.8221; 6.9858; 2.5799; 0.0544; -0.0703; -0.1247; 6.7; 34.35; -32.17; -5.15; 304.52; -53.3; 64.04; 50.505; 59.93677; 10.509521; 249.1; 0.31275; 5.0; 27.0; 59.0; 3.718; 37011; 
-5.4868; 7.2818; 2.8403; 0.0224; 0.0011; -0.0203; 6.7; 34.35; -32.17; -5.15; 304.52; -53.3; 64.04; 53.799; 59.93677; 10.509521; 249.1; 0.31275; 5.0; 27.0; 59.0; 3.718; 37111; 
-5.4868; 7.2818; 2.8403; 0.0224; 0.0011; -0.0203; 6.7; 34.95; -32.17; -5.45; 304.52; -53.3; 64.04; 53.799; 59.93677; 10.509521; 249.1; 0.31275; 5.0; 27.0; 59.0; 3.718; 37211; 
-5.3189; 7.4681; 2.8757; -0.0629; 0.0213; 0.0032; 6.779; 34.95; -32.17; -5.45; 304.52; -53.3; 64.04; 53.799; 59.93677; 10.509521; 249.1; 0.31275; 5.0; 27.0; 59.0; 3.718; 37321; 
-5.3189; 7.4681; 2.8757; -0.0629; 0.0213; 0.0032; 6.779; 34.95; -31.57; -4.95; 302.09; -52.45; 63.28; 53.992; 59.93677; 10.509521; 249.1; 0.31275; 5.0; 27.0; 59.0; 3.718; 37431; 
-5.5177; 6.861; 2.8067; 0.3667; 0.0192; -0.0597; 6.779; 34.95; -31.57; -4.95; 302.09; -52.45; 63.28; 53.992; 59.93677; 10.509521; 249.1; 0.31275; 5.0; 27.0; 59.0; 3.718; 37538; 
-5.5177; 6.861; 2.8067; 0.3667; 0.0192; -0.0597; 6.6219; 35.85; -30.47; -3.02; 302.09; -52.45; 63.28; 53.992; 59.93677; 10.509521; 249.1; 0.31275; 5.0; 27.0; 59.0; 3.718; 37662; 
-6.0512; 6.8798; 2.1867; 0.5766; -0.2899; 0.0128; 6.6219; 35.85; -30.47; -3.02; 302.09; -52.45; 63.28; 53.992; 59.93677; 10.509521; 249.1; 0.31275; 5.0; 27.0; 59.0; 3.718; 37772; 
-6.0512; 6.8798; 2.1867; 0.5766; -0.2899; 0.0128; 6.6219; 35.85; -30.47; -3.02; 302.09; -52.45; 63.28; 44.326; 59.93677; 10.509521; 249.1; 0.31275; 5.0; 27.0; 59.0; 3.718; 37878; 
-6.2151; 7.356; 1.6972; 0.3155; -0.2526; -0.0917; 6.2449; 36.65; -29.26; -1.59; 322.87; -52.71; 73.75; 44.326; 59.93677; 10.509521; 249.1; 0.31275; 5.0; 27.0; 59.0; 3.718; 37989; 
-6.2151; 7.356; 1.6972; 0.3155; -0.2526; -0.0917; 6.2449; 36.65; -29.26; -1.59; 322.87; -52.71; 73.75; 44.326; 59.93677; 10.509521; 249.1; 0.31275; 5.0; 27.0; 59.0; 3.718; 38089; 
-5.8867; 7.6272; 1.6036; -0.0469; 0.146; 0.0362; 6.2449; 36.65; -29.26; -1.59; 322.87; -52.71; 73.75; 56.111; 59.93677; 10.509521; 249.1; 0.31275; 5.0; 27.0; 59.0; 3.718; 38189; 
-5.8867; 7.6272; 1.6036; -0.0469; 0.146; 0.0362; 5.8208; 37.45; -28.46; -0.88; 322.87; -52.71; 73.75; 56.111; 59.93677; 10.509521; 249.1; 0.31275; 5.0; 27.0; 59.0; 3.718; 38320; 
-5.7043; 7.2851; 1.2803; -0.0416; 0.0469; 0.1013; 5.8208; 37.45; -28.46; -0.88; 322.87; -52.71; 73.75; 56.111; 59.93677; 10.509521; 249.1; 0.31275; 5.0; 27.0; 59.0; 3.718; 38421; 
-5.7043; 7.2851; 1.2803; -0.0416; 0.0469; 0.1013; 5.8208; 37.35; -29.57; -1.39; 323.86; -52.52; 76.51; 51.093; 59.93677; 10.509521; 249.1; 0.31275; 5.0; 27.0; 59.0; 3.718; 38522; 
-5.5481; 7.3877; 1.8066; -0.2185; 0.1652; 0.0629; 5.8208; 37.35; -29.57; -1.39; 323.86; -52.52; 76.51; 51.093; 59.93677; 10.509521; 249.1; 0.31275; 5.0; 27.0; 59.0; 3.718; 38622; 
-5.5481; 7.3877; 1.8066; -0.2185; 0.1652; 0.0629; 5.8208; 37.35; -29.57; -1.39; 323.86; -52.52; 76.51; 51.093; 59.93677; 10.509521; 249.1; 0.31275; 5.0; 27.0; 59.0; 3.718; 38722; 
-6.0871; 7.0424; 1.9108; 0.0053; 0.0949; 0.0362; 5.8208; 36.85; -30.37; -1.19; 323.86; -52.52; 76.51; 58.331; 59.93677; 10.509521; 249.1; 0.31275; 5.0; 27.0; 59.0; 3.718; 38828; 
-6.0871; 7.0424; 1.9108; 0.0053; 0.0949; 0.0362; 5.8208; 36.85; -30.37; -1.19; 323.86; -52.52; 76.51; 58.331; 59.93677; 10.509521; 249.1; 0.31275; 5.0; 27.0; 59.0; 3.718; 38928; 
-5.8543; 7.4636; 1.2869; 0.1812; 0.0863; 0.0789; 5.8208; 36.85; -30.37; -1.19; 323.86; -52.52; 76.51; 58.331; 59.93677; 10.509521; 249.1; 0.31275; 5.0; 27.0; 59.0; 3.718; 39028; 
-5.8543; 7.4636; 1.2869; 0.1812; 0.0863; 0.0789; 5.8208; 35.95; -30.87; -0.78; 311.63; -52.62; 72.61; 58.331; 59.93677; 10.509521; 249.1; 0.31275; 5.0; 27.0; 59.0; 3.718; 39128; 
-5.6768; 7.7648; 1.546; -0.1514; 0.1236; 0.1524; 6.0291; 35.95; -30.87; -0.78; 311.63; -52.62; 72.61; 45.188; 59.93677; 10.509521; 249.1; 0.31275; 5.0; 27.0; 59.0; 3.718; 39242; 
-5.6768; 7.7648; 1.546; -0.1514; 0.1236; 0.1524; 6.0291; 34.65; -32.67; 0.64; 311.63; -52.62; 72.61; 45.188; 59.93677; 10.509521; 249.1; 0.31275; 5.0; 27.0; 59.0; 3.718; 39351; 
-5.214; 7.8389; 1.8585; -0.2132; 0.2366; 0.0703; 6.0291; 34.65; -32.67; 0.64; 311.63; -52.62; 72.61; 45.188; 59.93677; 10.509521; 249.1; 0.31275; 5.0; 27.0; 59.0; 3.718; 39451; 
-5.214; 7.8389; 1.8585; -0.2132; 0.2366; 0.0703; 6.2449; 34.65; -32.67; 0.64; 311.63; -52.62; 72.61; 59.117; 59.93677; 10.509521; 249.1; 0.31275; 5.0; 27.0; 59.0; 3.718; 39551; 
-5.0153; 7.8536; 1.9397; -0.2601; 0.145; -0.0426; 6.2449; 34.35; -33.27; -0.78; 302.21; -54.29; 69.56; 59.117; 59.93677; 10.509521; 249.1; 0.31275; 5.0; 27.0; 59.0; 3.718; 39652; 
-5.0153; 7.8536; 1.9397; -0.2601; 0.145; -0.0426; 6.2449; 34.35; -33.27; -0.78; 302.21; -54.29; 69.56; 59.117; 59.93677; 10.509521; 249.1; 0.31275; 5.0; 27.0; 59.0; 3.718; 39753; 
-5.5205; 7.5283; 2.4458; -0.3805; 0.1108; -0.0512; 6.1721; 34.35; -33.27; -0.78; 302.21; -54.29; 69.56; 59.117; 59.93677; 10.509521; 249.1; 0.31275; 5.0; 27.0; 59.0; 3.718; 39863; 
-5.5205; 7.5283; 2.4458; -0.3805; 0.1108; -0.0512; 6.1721; 34.45; -32.07; -3.52; 302.21; -54.29; 69.56; 52.338; 59.93677; 10.509521; 249.1; 0.31275; 5.0; 27.0; 59.0; 3.718; 39963; 
-5.6464; 7.053; 2.7517; 0.1055; -0.0917; 0.032; 6.1721; 34.45; -32.07; -3.52; 302.21; -54.29; 69.56; 52.338; 59.93677; 10.509521; 249.1; 0.31275; 5.0; 27.0; 59.0; 3.718; 40064; 
-5.6464; 7.053; 2.7517; 0.1055; -0.0917; 0.032; 5.4894; 34.15; -32.37; -3.83; 294.28; -51.29; 63.75; 52.338; 59.93677; 10.509521; 249.1; 0.31275; 5.0; 27.0; 59.0; 3.718; 40177; 
-5.6493; 7.1143; 2.8147; 0.0043; -0.0789; 0.0703; 5.4894; 34.15; -32.37; -3.83; 294.28; -51.29; 63.75; 39.873; 59.93677; 10.509521; 249.1; 0.31275; 5.0; 27.0; 59.0; 3.718; 40277; 
-5.6493; 7.1143; 2.8147; 0.0043; -0.0789; 0.0703; 5.3622; 34.15; -32.37; -3.83; 294.28; -51.29; 63.75; 39.873; 59.93677; 10.509521; 249.1; 0.31275; 5.0; 27.0; 59.0; 3.718; 40381; 
-5.521; 7.4591; 2.6236; -0.0234; -0.0341; 0.0693; 5.3622; 33.75; -32.97; -3.83; 294.28; -51.29; 63.75; 39.873; 59.93677; 10.509521; 249.1; 0.31275; 5.0; 27.0; 59.0; 3.718; 40482; 
-5.521; 7.4591; 2.6236; -0.0234; -0.0341; 0.0693; 5.3622; 33.75; -32.97; -3.83; 294.28; -51.29; 63.75; 39.873; 59.93677; 10.509521; 249.1; 0.31275; 5.0; 27.0; 59.0; 3.718; 40582; 
-5.4343; 7.5055; 2.5661; -0.0448; 0.1247; 0.0234; 5.3622; 33.15; -33.67; -2.91; 288.07; -52.69; 63.45; 37.927; 59.93677; 10.509521; 249.1; 0.31275; 5.0; 27.0; 59.0; 3.718; 40727; 
-5.4343; 7.5055; 2.5661; -0.0448; 0.1247; 0.0234; 5.3622; 33.15; -33.67; -2.91; 288.07; -52.69; 63.45; 37.927; 59.93677; 10.509521; 249.1; 0.31275; 5.0; 27.0; 59.0; 3.718; 40827; 
-5.3288; 7.2656; 2.494; 0.1172; -0.1087; -0.0799; 5.3622; 33.15; -33.67; -2.91; 288.07; -52.69; 63.45; 37.927; 59.93677; 10.509521; 249.1; 0.31275; 5.0; 27.0; 59.0; 3.718; 40928; 
-5.3288; 7.2656; 2.494; 0.1172; -0.1087; -0.0799; 5.3622; 33.15; -33.77; -3.12; 288.07; -52.69; 63.45; 41.566; 59.93677; 10.509521; 249.1; 0.31275; 5.0; 27.0; 59.0; 3.718; 41028; 
-5.5317; 7.2644; 2.6454; 0.1311; -0.2217; -0.081; 5.3622; 33.15; -33.77; -3.12; 288.07; -52.69; 63.45; 41.566; 59.93677; 10.509521; 249.1; 0.31275; 5.0; 27.0; 59.0; 3.718; 41128; 
-5.5317; 7.2644; 2.6454; 0.1311; -0.2217; -0.081; 5.4254; 33.25; -34.37; -2.0; 286.12; -52.86; 63.53; 41.566; 59.93677; 10.509521; 249.1; 0.31275; 5.0; 27.0; 59.0; 3.718; 41244; 
-5.2116; 7.6696; 2.3721; -0.032; -0.1418; -0.1492; 5.4254; 33.25; -34.37; -2.0; 286.12; -52.86; 63.53; 63.146; 59.93677; 10.509521; 249.1; 0.31275; 5.0; 27.0; 59.0; 3.718; 41347; 
-5.2116; 7.6696; 2.3721; -0.032; -0.1418; -0.1492; 6.1721; 33.25; -34.37; -2.0; 286.12; -52.86; 63.53; 63.146; 59.93677; 10.509521; 249.1; 0.31275; 5.0; 27.0; 59.0; 3.718; 41455; 
-5.6034; 6.9786; 2.2322; -0.0693; 0.1119; 0.1236; 6.1721; 33.75; -34.07; -3.22; 286.12; -52.86; 63.53; 63.146; 59.93677; 10.509521; 249.1; 0.31275; 5.0; 27.0; 59.0; 3.718; 41556; 
-5.6034; 6.9786; 2.2322; -0.0693; 0.1119; 0.1236; 6.1721; 33.75; -34.07; -3.22; 286.12; -52.86; 63.53; 55.961; 59.93677; 10.509521; 249.1; 0.31275; 5.0; 27.0; 59.0; 3.718; 41657; 
-5.3773; 7.1; 2.7157; -0.0352; -0.2174; -0.0544; 6.3186; 33.75; -34.07; -3.22; 286.12; -52.86; 63.53; 55.961; 59.93677; 10.509521; 249.1; 0.31275; 5.0; 27.0; 59.0; 3.718; 41760; 
-5.3773; 7.1; 2.7157; -0.0352; -0.2174; -0.0544; 6.3186; 33.75; -33.47; -5.45; 294.75; -52.06; 62.2; 55.961; 59.93677; 10.509521; 249.1; 0.31275; 5.0; 27.0; 59.0; 3.718; 41860; 
-5.5895; 7.3106; 2.9462; -0.0842; 0.0405; 0.1066; 6.3186; 33.75; -33.47; -5.45; 294.75; -52.06; 62.2; 55.961; 59.93677; 10.509521; 249.1; 0.31275; 5.0; 27.0; 59.0; 3.718; 41960; 
-5.5895; 7.3106; 2.9462; -0.0842; 0.0405; 0.1066; 6.3186; 33.05; -33.97; -5.05; 294.75; -52.06; 62.2; 42.673; 59.93677; 10.509521; 249.1; 0.31275; 5.0; 27.0; 59.0; 3.718; 42077; 
-5.3273; 7.3726; 2.945; -0.048; 0.0075; 0.0853; 6.3186; 33.05; -33.97; -5.05; 294.75; -52.06; 62.2; 42.673; 59.93677; 10.509521; 249.1; 0.31275; 5.0; 27.0; 59.0; 3.718; 42178; 
-5.3273; 7.3726; 2.945; -0.048; 0.0075; 0.0853; 6.3186; 33.05; -33.97; -5.05; 294.75; -52.06; 62.2; 42.673; 59.93677; 10.509521; 249.1; 0.31275; 5.0; 27.0; 59.0; 3.718; 42278; 
-5.1327; 7.4966; 2.8945; -0.0181; 0.0757; 0.0981; 6.3186; 32.15; -35.17; -4.34; 278.2; -51.82; 60.36; 37.469; 59.93677; 10.509521; 249.1; 0.31275; 5.0; 27.0; 59.0; 3.718; 42389; 
-5.1327; 7.4966; 2.8945; -0.0181; 0.0757; 0.0981; 6.3186; 32.15; -35.17; -4.34; 278.2; -51.82; 60.36; 37.469; 59.93677; 10.509521; 249.1; 0.31275; 5.0; 27.0; 59.0; 3.718; 42489; 
-5.1318; 7.4605; 2.949; -0.0277; 0.0011; 0.0075; 6.3186; 32.15; -35.17; -4.34; 278.2; -51.82; 60.36; 37.469; 59.93677; 10.509521; 249.1; 0.31275; 5.0; 27.0; 59.0; 3.718; 42589; 
-5.1318; 7.4605; 2.949; -0.0277; 0.0011; 0.0075; 6.3186; 32.15; -35.07; -5.76; 278.2; -51.82; 60.36; 37.469; 59.93677; 10.509521; 249.1; 0.31275; 5.0; 27.0; 59.0; 3.718; 42689; 
-5.1929; 7.4271; 3.1366; -0.0203; -0.0416; 0.0; 6.3186; 32.15; -35.07; -5.76; 278.2; -51.82; 60.36; 36.13; 59.93677; 10.509521; 249.1; 0.31275; 5.0; 27.0; 59.0; 3.718; 42795; 
-5.1929; 7.4271; 3.1366; -0.0203; -0.0416; 0.0; 6.3186; 32.35; -34.27; -6.17; 287.56; -52.64; 58.89; 36.13; 59.93677; 10.509521; 249.1; 0.31275; 5.0; 27.0; 59.0; 3.718; 42928; 
-5.1993; 7.3401; 3.2984; -0.0203; -0.0288; -0.0107; 6.3186; 32.35; -34.27; -6.17; 287.56; -52.64; 58.89; 36.13; 59.93677; 10.509521; 249.1; 0.31275; 5.0; 27.0; 59.0; 3.718; 43047; 
-5.1993; 7.3401; 3.2984; -0.0203; -0.0288; -0.0107; 6.3186; 32.35; -34.27; -6.17; 287.56; -52.64; 58.89; 32.443; 59.93677; 10.509521; 249.1; 0.31275; 5.0; 27.0; 59.0; 3.718; 43164; 
-5.2003; 7.2909; 3.2824; 0.0107; -0.0139; 0.0288; 6.3186; 32.35; -34.27; -6.88; 287.56; -52.64; 58.89; 32.443; 59.93677; 10.509521; 249.1; 0.31275; 5.0; 27.0; 59.0; 3.718; 43266; 
-5.2003; 7.2909; 3.2824; 0.0107; -0.0139; 0.0288; 6.3186; 32.35; -34.27; -6.88; 287.56; -52.64; 58.89; 32.443; 59.93677; 10.509521; 249.1; 0.31275; 5.0; 27.0; 59.0; 3.718; 43367; 
-5.2678; 7.2993; 3.2361; 0.0107; -0.0043; 0.0213; 6.3186; 32.85; -34.67; -7.18; 284.25; -51.51; 57.69; 33.836; 59.93677; 10.509521; 249.1; 0.31275; 5.0; 27.0; 59.0; 3.718; 43481; 
-5.2678; 7.2993; 3.2361; 0.0107; -0.0043; 0.0213; 6.3186; 32.85; -34.67; -7.18; 284.25; -51.51; 57.69; 33.836; 59.93677; 10.509521; 249.1; 0.31275; 5.0; 27.0; 59.0; 3.718; 43582; 
-5.2821; 7.2136; 3.3625; 0.0149; -0.0149; 0.0107; 6.3186; 32.85; -34.67; -7.18; 284.25; -51.51; 57.69; 33.836; 59.93677; 10.509521; 249.1; 0.31275; 5.0; 27.0; 59.0; 3.718; 43682; 
-5.2821; 7.2136; 3.3625; 0.0149; -0.0149; 0.0107; 6.3186; 32.85; -34.67; -6.67; 284.25; -51.51; 57.69; 33.3; 59.93677; 10.509521; 249.1; 0.31275; 5.0; 27.0; 59.0; 3.718; 43799; 
-5.2783; 7.2184; 3.2494; 0.0288; -0.0352; 0.0032; 6.3186; 32.85; -34.67; -6.67; 284.25; -51.51; 57.69; 33.3; 59.93677; 10.509521; 249.1; 0.31275; 5.0; 27.0; 59.0; 3.718; 43899; 
-5.2783; 7.2184; 3.2494; 0.0288; -0.0352; 0.0032; 6.3186; 32.85; -34.67; -6.67; 284.25; -51.51; 57.69; 33.3; 59.93677; 10.509521; 249.1; 0.31275; 5.0; 27.0; 59.0; 3.718; 44000; 
-5.3189; 7.2205; 3.2545; 0.0011; 0.0021; 0.0053; 6.3186; 33.05; -34.17; -7.08; 286.17; -51.35; 57.46; 33.3; 59.93677; 10.509521; 249.1; 0.31275; 5.0; 27.0; 59.0; 3.718; 44100; 
-5.3189; 7.2205; 3.2545; 0.0011; 0.0021; 0.0053; 6.3186; 33.05; -34.17; -7.08; 286.17; -51.35; 57.46; 32.155; 59.93677; 10.509521; 249.1; 0.31275; 5.0; 27.0; 59.0; 3.718; 44201; 
-5.3032; 7.249; 3.281; 0.0011; 0.0416; 0.0192; 6.3186; 33.15; -34.27; -6.47; 286.17; -51.35; 57.46; 32.155; 59.93677; 10.509521; 249.1; 0.31275; 5.0; 27.0; 59.0; 3.718; 44302; 
-5.3032; 7.249; 3.281; 0.0011; 0.0416; 0.0192; 6.3186; 33.15; -34.27; -6.47; 286.17; -51.35; 57.46; 32.155; 59.93677; 10.509521; 249.1; 0.31275; 5.0; 27.0; 59.0; 3.718; 44403; 
-5.3455; 7.2009; 3.3563; -0.0245; 0.016; 0.0021; 6.3186; 33.15; -34.27; -6.47; 286.17; -51.35; 57.46; 41.938; 59.93677; 10.509521; 249.1; 0.31275; 5.0; 27.0; 59.0; 3.718; 44503; 
-5.3455; 7.2009; 3.3563; -0.0245; 0.016; 0.0021; 6.3186; 33.55; -33.67; -6.88; 287.58; -51.02; 57.76; 41.938; 59.93677; 10.509521; 249.1; 0.31275; 5.0; 27.0; 59.0; 3.718; 44604; 
-5.415; 7.1032; 3.2837; 0.0224; -0.0043; 0.0085; 6.3186; 33.55; -33.67; -6.88; 287.58; -51.02; 57.76; 41.938; 59.93677; 10.509521; 249.1; 0.31275; 5.0; 27.0; 59.0; 3.718; 44704; 
-5.415; 7.1032; 3.2837; 0.0224; -0.0043; 0.0085; 6.3186; 33.45; -33.47; -7.79; 287.58; -51.02; 57.76; 41.938; 59.93677; 10.509521; 249.1; 0.31275; 5.0; 27.0; 59.0; 3.718; 44806; 
-5.3936; 7.1425; 3.2207; 0.0203; 0.0117; 0.0298; 6.3186; 33.45; -33.47; -7.79; 287.58; -51.02; 57.76; 32.115; 59.93677; 10.509521; 249.1; 0.31275; 5.0; 27.0; 59.0; 3.718; 44906; 
-5.3936; 7.1425; 3.2207; 0.0203; 0.0117; 0.0298; 6.3186; 33.45; -33.47; -7.79; 287.58; -51.02; 57.76; 32.115; 59.93677; 10.509521; 249.1; 0.31275; 5.0; 27.0; 59.0; 3.718; 45006; 
-5.3846; 7.0966; 3.2571; -0.0053; 0.0234; 0.0373; 6.3186; 33.05; -34.17; -6.47; 280.93; -50.42; 58.13; 32.115; 59.93677; 10.509521; 249.1; 0.31275; 5.0; 27.0; 59.0; 3.718; 45116; 
-5.3846; 7.0966; 3.2571; -0.0053; 0.0234; 0.0373; 6.3186; 33.05; -34.17; -6.47; 280.93; -50.42; 58.13; 37.798; 59.93677; 10.509521; 249.1; 0.31275; 5.0; 27.0; 59.0; 3.718; 45216; 
-5.3437; 7.1536; 3.2758; -0.0256; 0.0394; 0.0096; 6.3186; 33.05; -34.17; -6.47; 280.93; -50.42; 58.13; 37.798; 59.93677; 10.509521; 249.1; 0.31275; 5.0; 27.0; 59.0; 3.718; 45316; 
-5.3437; 7.1536; 3.2758; -0.0256; 0.0394; 0.0096; 6.3186; 33.15; -34.07; -5.45; 280.93; -50.42; 58.13; 37.798; 59.93677; 10.509521; 249.1; 0.31275; 5.0; 27.0; 59.0; 3.718; 45417; 
-5.444; 7.0932; 3.2941; -0.0032; 0.0203; -0.0043; 6.3186; 33.15; -34.07; -5.45; 280.93; -50.42; 58.13; 37.798; 59.93677; 10.509521; 249.1; 0.31275; 5.0; 27.0; 59.0; 3.718; 45525; 
-5.444; 7.0932; 3.2941; -0.0032; 0.0203; -0.0043; 6.3186; 33.15; -34.07; -5.45; 280.93; -50.42; 58.13; 33.506; 59.93677; 10.509521; 249.1; 0.31275; 5.0; 27.0; 59.0; 3.718; 45625; 
-5.5277; 7.106; 3.1674; -0.0021; 0.0085; 0.0043; 6.3186; 33.35; -33.77; -6.17; 281.06; -50.27; 58.68; 33.506; 59.93677; 10.509521; 249.1; 0.31275; 5.0; 27.0; 59.0; 3.718; 45741; 
-5.5277; 7.106; 3.1674; -0.0021; 0.0085; 0.0043; 6.3186; 33.35; -33.77; -6.17; 281.06; -50.27; 58.68; 33.506; 59.93677; 10.509521; 249.1; 0.31275; 5.0; 27.0; 59.0; 3.718; 45842; 
-5.4597; 7.1881; 3.2294; -0.0085; -0.0213; 0.0; 6.3186; 33.35; -33.57; -6.17; 281.06; -50.27; 58.68; 33.132; 59.93677; 10.509521; 249.1; 0.31275; 5.0; 27.0; 59.0; 3.718; 45942; 
-5.4597; 7.1881; 3.2294; -0.0085; -0.0213; 0.0; 6.3186; 33.35; -33.57; -6.17; 281.06; -50.27; 58.68; 33.132; 59.93677; 10.509521; 249.1; 0.31275; 5.0; 27.0; 59.0; 3.718; 46043; 
-5.4639; 7.0701; 3.1891; 0.0139; -0.0256; 0.0011; 6.3186; 33.75; -33.37; -6.17; 284.7; -49.73; 58.93; 33.132; 59.93677; 10.509521; 249.1; 0.31275; 5.0; 27.0; 59.0; 3.718; 46171; 
-5.4639; 7.0701; 3.1891; 0.0139; -0.0256; 0.0011; 6.3186; 33.75; -33.37; -6.17; 284.7; -49.73; 58.93; 35.085; 59.93677; 10.509521; 249.1; 0.31275; 5.0; 27.0; 59.0; 3.718; 46272; 
-5.6184; 7.0113; 3.2301; 0.016; -0.0426; -0.0245; 6.3186; 33.75; -33.37; -6.17; 284.7; -49.73; 58.93; 35.085; 59.93677; 10.509521; 249.1; 0.31275; 5.0; 27.0; 59.0; 3.718; 46372; 
-5.6184; 7.0113; 3.2301; 0.016; -0.0426; -0.0245; 6.3186; 34.25; -33.27; -6.67; 284.7; -49.73; 58.93; 35.085; 59.93677; 10.509521; 249.1; 0.31275; 5.0; 27.0; 59.0; 3.718; 46472; 
-5.5458; 6.9502; 3.2927; 0.0096; -0.0565; -0.0203; 6.3186; 34.25; -33.27; -6.67; 284.7; -49.73; 58.93; 35.085; 59.93677; 10.509521; 249.1; 0.31275; 5.0; 27.0; 59.0; 3.718; 46576; 
-5.5458; 6.9502; 3.2927; 0.0096; -0.0565; -0.0203; 6.3186; 34.25; -33.27; -6.67; 284.7; -49.73; 58.93; 32.648; 59.93677; 10.509521; 249.1; 0.31275; 5.0; 27.0; 59.0; 3.718; 46676; 
-5.5554; 6.8569; 3.4312; -0.0341; -0.0309; -0.0128; 6.3186; 34.65; -32.27; -7.08; 290.46; -49.08; 59.14; 32.648; 59.93677; 10.509521; 249.1; 0.31275; 5.0; 27.0; 59.0; 3.718; 46794; 
-5.5554; 6.8569; 3.4312; -0.0341; -0.0309; -0.0128; 6.3186; 34.65; -32.27; -7.08; 290.46; -49.08; 59.14; 32.648; 59.93677; 10.509521; 249.1; 0.31275; 5.0; 27.0; 59.0; 3.718; 46895; 
-5.6237; 6.8707; 3.4711; -0.0213; -0.0043; 0.0192; 6.3186; 34.65; -32.37; -7.28; 290.46; -49.08; 59.14; 32.259; 59.93677; 10.509521; 249.1; 0.31275; 5.0; 27.0; 59.0; 3.718; 47016; 
-5.6237; 6.8707; 3.4711; -0.0213; -0.0043; 0.0192; 6.3186; 34.65; -32.37; -7.28; 290.46; -49.08; 59.14; 32.259; 59.93677; 10.509521; 249.1; 0.31275; 5.0; 27.0; 59.0; 3.718; 47116; 
-5.6594; 6.8002; 3.4848; 0.0117; 0.0341; 0.0384; 6.3186; 34.25; -32.37; -7.28; 283.65; -48.06; 58.38; 32.259; 59.93677; 10.509521; 249.1; 0.31275; 5.0; 27.0; 59.0; 3.718; 47218; 
-5.6594; 6.8002; 3.4848; 0.0117; 0.0341; 0.0384; 6.3186; 34.25; -32.37; -7.28; 283.65; -48.06; 58.38; 34.056; 59.93677; 10.509521; 249.1; 0.31275; 5.0; 27.0; 59.0; 3.718; 47319; 
-5.6519; 6.8557; 3.4627; 0.0256; -0.0021; 0.033; 6.3186; 34.25; -32.37; -7.28; 283.65; -48.06; 58.38; 34.056; 59.93677; 10.509521; 249.1; 0.31275; 5.0; 27.0; 59.0; 3.718; 47423; 
-5.6519; 6.8557; 3.4627; 0.0256; -0.0021; 0.033; 6.3186; 34.25; -32.37; -7.79; 283.65; -48.06; 58.38; 34.056; 59.93677; 10.509521; 249.1; 0.31275; 5.0; 27.0; 59.0; 3.718; 47524; 
-5.6109; 6.8607; 3.4946; 0.0224; -0.0021; 0.0277; 6.3186; 34.25; -32.37; -7.79; 283.65; -48.06; 58.38; 34.056; 59.93677; 10.509521; 249.1; 0.31275; 5.0; 27.0; 59.0; 3.718; 47632; 
-5.6109; 6.8607; 3.4946; 0.0224; -0.0021; 0.0277; 6.3186; 34.25; -32.37; -7.79; 283.65; -48.06; 58.38; 32.422; 59.93677; 10.509521; 249.1; 0.31275; 5.0; 27.0; 59.0; 3.718; 47734; 
-5.6418; 6.8786; 3.4479; 0.0128; 0.0021; 0.0203; 6.3186; 34.25; -32.47; -7.08; 281.8; -47.79; 57.71; 32.422; 59.93677; 10.509521; 249.1; 0.31275; 5.0; 27.0; 59.0; 3.718; 47847; 
-5.6418; 6.8786; 3.4479; 0.0128; 0.0021; 0.0203; 6.3186; 34.25; -32.47; -7.08; 281.8; -47.79; 57.71; 32.422; 59.93677; 10.509521; 249.1; 0.31275; 5.0; 27.0; 59.0; 3.718; 47947; 
-5.6545; 6.8572; 3.4051; 0.016; -0.0341; 0.0288; 6.3186; 34.65; -32.47; -7.08; 281.8; -47.79; 57.71; 32.151; 59.93677; 10.509521; 249.1; 0.31275; 5.0; 27.0; 59.0; 3.718; 48055; 
-5.6545; 6.8572; 3.4051; 0.016; -0.0341; 0.0288; 6.3186; 34.65; -32.47; -7.08; 281.8; -47.79; 57.71; 32.151; 59.93677; 10.509521; 249.1; 0.31275; 5.0; 27.0; 59.0; 3.718; 48155; 
-5.653; 6.895; 3.3955; 0.0043; 0.0011; 0.0245; 6.3186; 34.65; -32.47; -7.08; 281.8; -47.79; 57.71; 32.151; 59.93677; 10.509521; 249.1; 0.31275; 5.0; 27.0; 59.0; 3.718; 48263; 
-5.653; 6.895; 3.3955; 0.0043; 0.0011; 0.0245; 6.3186; 34.15; -32.47; -7.08; 283.13; -48.0; 58.17; 32.151; 59.93677; 10.509521; 249.1; 0.31275; 5.0; 27.0; 59.0; 3.718; 48376; 
-5.5892; 6.8827; 3.3231; 0.0394; 0.0171; 0.0256; 6.3186; 34.15; -32.47; -7.08; 283.13; -48.0; 58.17; 34.426; 59.93677; 10.509521; 249.1; 0.31275; 5.0; 27.0; 59.0; 3.718; 48500; 
-5.5892; 6.8827; 3.3231; 0.0394; 0.0171; 0.0256; 6.3186; 34.15; -32.37; -7.79; 283.13; -48.0; 58.17; 34.426; 59.93677; 10.509521; 249.1; 0.31275; 5.0; 27.0; 59.0; 3.718; 48623; 
-5.5199; 6.8529; 3.4795; 0.1769; -0.0064; 0.0245; 6.3186; 34.15; -32.37; -7.79; 283.13; -48.0; 58.17; 57.546; 59.93677; 10.509521; 249.1; 0.31275; 5.0; 27.0; 59.0; 3.718; 48735; 
-5.5199; 6.8529; 3.4795; 0.1769; -0.0064; 0.0245; 6.3186; 34.35; -32.07; -6.57; 284.68; -48.31; 58.49; 57.546; 59.93677; 10.509521; 249.1; 0.31275; 5.0; 27.0; 59.0; 3.718; 48861; 
-5.5505; 6.8111; 3.4984; 0.2004; 0.0789; -0.0234; 6.3931; 34.35; -32.07; -6.57; 284.68; -48.31; 58.49; 57.546; 59.93677; 10.509521; 249.1; 0.31275; 5.0; 27.0; 59.0; 3.718; 48961; 
-5.5505; 6.8111; 3.4984; 0.2004; 0.0789; -0.0234; 6.3931; 34.35; -32.07; -6.57; 284.68; -48.31; 58.49; 57.546; 59.93677; 10.509521; 249.1; 0.31275; 5.0; 27.0; 59.0; 3.718; 49061; 
-5.5726; 6.9911; 2.9487; 0.2803; 0.0906; -0.0011; 6.0291; 34.75; -32.37; -3.63; 284.68; -48.31; 58.49; 40.537; 59.93677; 10.509521; 249.1; 0.31275; 5.0; 27.0; 59.0; 3.718; 49185; 
-5.8459; 7.0222; 2.5562; 0.2558; 0.1311; 0.0608; 6.0291; 34.75; -32.37; -3.63; 284.68; -48.31; 58.49; 40.537; 59.93677; 10.509521; 249.1; 0.31275; 5.0; 27.0; 59.0; 3.718; 49315; 
-5.8459; 7.0222; 2.5562; 0.2558; 0.1311; 0.0608; 6.0291; 34.85; -32.27; 0.84; 288.16; -50.73; 68.07; 40.537; 59.93677; 10.509521; 249.1; 0.31275; 5.0; 27.0; 59.0; 3.718; 49415; 
-6.0494; 7.175; 2.294; 0.0682; 0.0586; 0.0885; 5.7529; 34.85; -32.27; 0.84; 288.16; -50.73; 68.07; 53.249; 59.93677; 10.509521; 249.1; 0.31275; 5.0; 27.0; 59.0; 3.718; 49515; 
-6.0494; 7.175; 2.294; 0.0682; 0.0586; 0.0885; 5.7529; 34.85; -32.27; 0.84; 288.16; -50.73; 68.07; 53.249; 59.93677; 10.509521; 249.1; 0.31275; 5.0; 27.0; 59.0; 3.718; 49616; 
-5.7843; 6.939; 1.2518; 0.2931; 0.0757; 0.0693; 5.7529; 33.65; -33.47; 2.27; 288.16; -50.73; 68.07; 53.249; 59.93677; 10.509521; 249.1; 0.31275; 5.0; 27.0; 59.0; 3.718; 49729; 
-5.7843; 6.939; 1.2518; 0.2931; 0.0757; 0.0693; 5.1769; 33.65; -33.47; 2.27; 288.16; -50.73; 68.07; 62.735; 59.93677; 10.509521; 249.1; 0.31275; 5.0; 27.0; 59.0; 3.718; 49851; 
-5.2647; 7.371; 1.6121; 0.7056; 0.1609; 0.162; 5.1769; 33.05; -32.97; 4.91; 290.09; -53.6; 74.63; 62.735; 59.93677; 10.509521; 249.1; 0.31275; 5.0; 27.0; 59.0; 3.718; 49951; 
-5.2647; 7.371; 1.6121; 0.7056; 0.1609; 0.162; 5.1769; 33.05; -32.97; 4.91; 290.09; -53.6; 74.63; 62.735; 59.93677; 10.509521; 249.1; 0.31275; 5.0; 27.0; 59.0; 3.718; 50051; 
-5.3533; 8.242; -0.2444; 0.3496; 0.2729; -0.0224; 5.1165; 33.25; -31.07; 11.51; 290.09; -53.6; 74.63; 44.382; 59.93677; 10.509521; 249.1; 0.31275; 5.0; 27.0; 59.0; 3.718; 50165; 
-5.3533; 8.242; -0.2444; 0.3496; 0.2729; -0.0224; 5.1165; 33.25; -31.07; 11.51; 290.09; -53.6; 74.63; 44.382; 59.93677; 10.509521; 249.1; 0.31275; 5.0; 27.0; 59.0; 3.718; 50265; 
-5.2437; 7.7828; -1.8078; 0.1972; 0.3826; 0.129; 4.8252; 33.25; -31.07; 11.51; 290.09; -53.6; 74.63; 44.382; 59.93677; 10.509521; 249.1; 0.31275; 5.0; 27.0; 59.0; 3.718; 50368; 
-5.2437; 7.7828; -1.8078; 0.1972; 0.3826; 0.129; 4.8252; 29.55; -29.67; 19.23; 299.96; -56.2; 94.78; 44.382; 59.93677; 10.509521; 249.1; 0.31275; 5.0; 27.0; 59.0; 3.718; 50469; 
-5.6972; 8.1208; -2.0003; 0.4391; 0.388; 0.2206; 4.8252; 29.55; -29.67; 19.23; 299.96; -56.2; 94.78; 44.094; 59.93677; 10.509521; 249.1; 0.31275; 5.0; 27.0; 59.0; 3.718; 50578; 
-5.6972; 8.1208; -2.0003; 0.4391; 0.388; 0.2206; 4.192; 29.55; -29.67; 19.23; 299.96; -56.2; 94.78; 44.094; 59.93677; 10.509521; 249.1; 0.31275; 5.0; 27.0; 59.0; 3.718; 50679; 
-4.439; 7.1469; -2.4781; 0.3709; 0.3869; 0.2984; 4.192; 25.55; -28.06; 25.84; 299.96; -56.2; 94.78; 44.094; 59.93677; 10.509521; 249.1; 0.31275; 5.0; 27.0; 59.0; 3.718; 50804; 
-4.439; 7.1469; -2.4781; 0.3709; 0.3869; 0.2984; 4.192; 25.55; -28.06; 25.84; 299.96; -56.2; 94.78; 49.702; 59.93677; 10.509521; 249.1; 0.31275; 5.0; 27.0; 59.0; 3.718; 50904; 
-4.5218; 8.1857; -3.2943; 0.4167; 0.2483; 0.0885; 4.192; 21.15; -24.66; 31.83; 308.57; -56.39; 118.76; 49.702; 59.93677; 10.509521; 249.1; 0.31275; 5.0; 27.0; 59.0; 3.718; 51004; 
-4.5218; 8.1857; -3.2943; 0.4167; 0.2483; 0.0885; 4.192; 21.15; -24.66; 31.83; 308.57; -56.39; 118.76; 49.702; 59.93677; 10.509521; 249.1; 0.31275; 5.0; 27.0; 59.0; 3.718; 51104; 
-5.1744; 8.9256; -3.8464; 0.3837; 0.4061; 0.0213; 4.192; 21.15; -24.66; 31.83; 308.57; -56.39; 118.76; 49.702; 59.93677; 10.509521; 249.1; 0.31275; 5.0; 27.0; 59.0; 3.718; 51204; 
-5.1744; 8.9256; -3.8464; 0.3837; 0.4061; 0.0213; 4.192; 19.25; -20.26; 36.81; 308.57; -56.39; 118.76; 49.179; 59.93677; 10.509521; 249.1; 0.31275; 5.0; 27.0; 59.0; 3.718; 51304; 
-6.0224; 8.8349; -6.748; 0.227; -0.016; 0.1226; 4.192; 19.25; -20.26; 36.81; 308.57; -56.39; 118.76; 49.179; 59.93677; 10.509521; 249.1; 0.31275; 5.0; 27.0; 59.0; 3.718; 51432; 
-6.0224; 8.8349; -6.748; 0.227; -0.016; 0.1226; 4.192; 21.95; -22.96; 33.46; 5.32; -46.32; 148.03; 49.179; 59.93677; 10.509521; 249.1; 0.31275; 5.0; 27.0; 59.0; 3.718; 51554; 
-4.012; 6.1956; -6.2148; -1.0882; -0.6363; -0.064; 4.3421; 21.95; -22.96; 33.46; 5.32; -46.32; 148.03; 49.951; 59.93677; 10.509521; 249.1; 0.31275; 5.0; 27.0; 59.0; 3.718; 51660; 
-4.012; 6.1956; -6.2148; -1.0882; -0.6363; -0.064; 4.3421; 21.95; -22.96; 33.46; 5.32; -46.32; 148.03; 49.951; 59.93677; 10.509521; 249.1; 0.31275; 5.0; 27.0; 59.0; 3.718; 51765; 
-2.2287; 5.4258; -1.9739; -0.7695; 0.0725; -0.065; 4.3421; 25.55; -33.17; 21.06; 5.32; -46.32; 148.03; 49.951; 59.93677; 10.509521; 249.1; 0.31275; 5.0; 27.0; 59.0; 3.718; 51866; 
-2.2287; 5.4258; -1.9739; -0.7695; 0.0725; -0.065; 5.8208; 25.55; -33.17; 21.06; 5.32; -46.32; 148.03; 50.924; 59.93677; 10.509521; 249.1; 0.31275; 5.0; 27.0; 59.0; 3.718; 51966; 
-1.553; 4.6146; -0.2994; 0.987; 0.5734; 0.2824; 5.8208; 25.55; -33.17; 21.06; 5.32; -46.32; 148.03; 50.924; 59.93677; 10.509521; 249.1; 0.31275; 5.0; 27.0; 59.0; 3.718; 52066; 
-1.553; 4.6146; -0.2994; 0.987; 0.5734; 0.2824; 5.2379; 21.85; -27.56; 31.12; 301.12; -58.73; 111.3; 50.924; 59.93677; 10.509521; 249.1; 0.31275; 5.0; 27.0; 59.0; 3.718; 52181; 
-3.9709; 7.635; -6.0985; 1.781; 0.5041; -0.0437; 5.2379; 21.85; -27.56; 31.12; 301.12; -58.73; 111.3; 70.014; 59.93677; 10.509521; 249.1; 0.31275; 5.0; 27.0; 59.0; 3.718; 52281; 
-3.9709; 7.635; -6.0985; 1.781; 0.5041; -0.0437; 5.2379; 12.25; -9.05; 42.6; 301.12; -58.73; 111.3; 70.014; 59.93677; 10.509521; 249.1; 0.31275; 5.0; 27.0; 59.0; 3.718; 52402; 
-3.7415; 8.2564; -9.4543; 1.2705; 0.7674; 0.0938; 5.2379; 12.25; -9.05; 42.6; 301.12; -58.73; 111.3; 70.014; 59.93677; 10.509521; 249.1; 0.31275; 5.0; 27.0; 59.0; 3.718; 52502; 
-3.7415; 8.2564; -9.4543; 1.2705; 0.7674; 0.0938; 5.2379; 12.25; -9.05; 42.6; 301.12; -58.73; 111.3; 70.014; 59.93677; 10.509521; 249.1; 0.31275; 5.0; 27.0; 59.0; 3.718; 52603; 
-4.0208; 6.9194; -14.9599; -1.1756; -0.8793; -0.4892; 5.2379; 12.05; -3.34; 43.62; 340.93; -45.64; 151.74; 56.085; 59.93677; 10.509521; 249.1; 0.31275; 5.0; 27.0; 59.0; 3.718; 52703; 
-4.0208; 6.9194; -14.9599; -1.1756; -0.8793; -0.4892; 5.2379; 12.05; -3.34; 43.62; 340.93; -45.64; 151.74; 56.085; 59.93677; 10.509521; 249.1; 0.31275; 5.0; 27.0; 59.0; 3.718; 52803; 
-3.9154; 5.2568; -8.2321; -1.4464; -1.4986; -0.1545; 4.3421; 12.05; -3.34; 43.62; 340.93; -45.64; 151.74; 56.085; 59.93677; 10.509521; 249.1; 0.31275; 5.0; 27.0; 59.0; 3.718; 52911; 
-3.9154; 5.2568; -8.2321; -1.4464; -1.4986; -0.1545; 4.3421; 26.35; -21.26; 31.12; 340.93; -45.64; 151.74; 55.98; 59.93677; 10.509521; 249.1; 0.31275; 5.0; 27.0; 59.0; 3.718; 53012; 
-3.1725; 4.6324; -1.8003; -1.1042; -0.5937; 0.0437; 4.3421; 26.35; -21.26; 31.12; 340.93; -45.64; 151.74; 55.98; 59.93677; 10.509521; 249.1; 0.31275; 5.0; 27.0; 59.0; 3.718; 53113; 
-3.1725; 4.6324; -1.8003; -1.1042; -0.5937; 0.0437; 11.7613; 28.95; -28.96; 21.47; 307.77; -50.99; 108.51; 55.98; 59.93677; 10.509521; 249.1; 0.31275; 5.0; 27.0; 59.0; 3.718; 53233; 
-3.8805; 3.1577; -0.767; 0.9006; 0.7536; 0.9284; 11.7613; 28.95; -28.96; 21.47; 307.77; -50.99; 108.51; 69.781; 59.93677; 10.509521; 249.1; 0.31275; 5.0; 27.0; 59.0; 3.718; 53333; 
-3.8805; 3.1577; -0.767; 0.9006; 0.7536; 0.9284; 5.8208; 28.95; -28.96; 21.47; 307.77; -50.99; 108.51; 69.781; 59.93677; 10.509521; 249.1; 0.31275; 5.0; 27.0; 59.0; 3.718; 53440; 
-5.219; 10.836; -10.1196; 1.7267; 1.1522; 0.1343; 5.8208; 16.75; -14.75; 38.84; 307.77; -50.99; 108.51; 69.781; 59.93677; 10.509521; 249.1; 0.31275; 5.0; 27.0; 59.0; 3.718; 53540; 
-5.219; 10.836; -10.1196; 1.7267; 1.1522; 0.1343; 5.8208; 16.75; -14.75; 38.84; 307.77; -50.99; 108.51; 69.781; 59.93677; 10.509521; 249.1; 0.31275; 5.0; 27.0; 59.0; 3.718; 53641; 
-4.3964; 9.5343; -10.8336; 0.3667; 0.5777; 0.2441; 4.998; 16.75; -14.75; 38.84; 307.77; -50.99; 108.51; 60.501; 59.93677; 10.509521; 249.1; 0.31275; 5.0; 27.0; 59.0; 3.718; 53743; 
-4.3964; 9.5343; -10.8336; 0.3667; 0.5777; 0.2441; 4.998; 11.45; -10.65; 42.29; 343.82; -38.46; 158.34; 60.501; 59.936813; 10.509692; 253.2; 2.2518; 15.0; 27.0; 59.0; 3.718; 53859; 
-2.3052; 5.5376; -10.0809; -1.6084; -1.2364; -0.4978; 5.7529; 11.45; -10.65; 42.29; 343.82; -38.46; 158.34; 60.501; 59.936813; 10.509692; 253.2; 2.2518; 15.0; 27.0; 59.0; 3.718; 53999; 
-2.3052; 5.5376; -10.0809; -1.6084; -1.2364; -0.4978; 5.7529; 21.05; -21.46; 34.07; 343.82; -38.46; 158.34; 56.73; 59.936813; 10.509692; 253.2; 2.2518; 15.0; 27.0; 59.0; 3.718; 54120; 
-3.4047; 4.9933; -4.4184; -1.3227; -1.2513; -0.3091; 17.1149; 21.05; -21.46; 34.07; 343.82; -38.46; 158.34; 56.73; 59.936813; 10.509692; 253.2; 2.2518; 15.0; 27.0; 59.0; 3.718; 54223; 
-3.4047; 4.9933; -4.4184; -1.3227; -1.2513; -0.3091; 17.1149; 31.55; -30.57; 16.59; 87.22; -44.28; 142.93; 56.73; 59.936813; 10.509692; 253.2; 2.2518; 15.0; 27.0; 59.0; 3.718; 54341; 
-4.3259; 5.2405; -0.5522; -0.2771; -0.3784; -0.0298; 17.1149; 31.55; -30.57; 16.59; 87.22; -44.28; 142.93; 62.938; 59.936813; 10.509692; 253.2; 2.2518; 15.0; 27.0; 59.0; 3.718; 54442; 
-1.1066; 4.275; -0.8742; 1.2897; 1.7352; 0.5393; 12.6183; 28.65; -29.06; 22.38; 87.22; -44.28; 142.93; 62.938; 59.936813; 10.509692; 253.2; 2.2518; 15.0; 27.0; 59.0; 3.718; 54582; 
-1.1066; 4.275; -0.8742; 1.2897; 1.7352; 0.5393; 12.6183; 28.65; -29.06; 22.38; 87.22; -44.28; 142.93; 62.938; 59.936813; 10.509692; 253.2; 2.2518; 15.0; 27.0; 59.0; 3.718; 54682; 
-5.5407; 8.5067; -5.9926; 1.247; 0.6651; 0.2419; 5.3622; 28.65; -29.06; 22.38; 87.22; -44.28; 142.93; 74.193; 59.936813; 10.509692; 253.2; 2.2518; 15.0; 27.0; 59.0; 3.718; 54793; 
-5.5407; 8.5067; -5.9926; 1.247; 0.6651; 0.2419; 5.3622; 15.95; -16.75; 39.25; 282.5; -52.11; 100.97; 74.193; 59.936813; 10.509692; 253.2; 2.2518; 15.0; 27.0; 59.0; 3.718; 54893; 
-4.664; 8.5435; -9.329; -0.485; -0.0149; 0.0437; 5.3622; 15.95; -16.75; 39.25; 282.5; -52.11; 100.97; 74.193; 59.936813; 10.509692; 253.2; 2.2518; 15.0; 27.0; 59.0; 3.718; 54993; 
-4.664; 8.5435; -9.329; -0.485; -0.0149; 0.0437; 10.3383; 15.95; -16.75; 39.25; 282.5; -52.11; 100.97; 74.193; 59.936813; 10.509692; 253.2; 2.2518; 15.0; 27.0; 59.0; 3.718; 55093; 
-3.7466; 7.0858; -9.2397; -1.6478; -0.8708; -0.6107; 10.3383; 15.45; -18.96; 37.72; 282.5; -52.11; 100.97; 64.043; 59.936813; 10.509692; 253.2; 2.2518; 15.0; 27.0; 59.0; 3.718; 55199; 
-3.7466; 7.0858; -9.2397; -1.6478; -0.8708; -0.6107; 10.3383; 15.45; -18.96; 37.72; 282.5; -52.11; 100.97; 64.043; 59.936813; 10.509692; 253.2; 2.2518; 15.0; 27.0; 59.0; 3.718; 55299; 
-4.6001; 7.3451; -4.4245; -1.5092; -0.9401; -0.5319; 11.2225; 26.05; -29.77; 22.18; 0.29; -51.2; 130.3; 64.043; 59.936813; 10.509692; 253.2; 2.2518; 15.0; 27.0; 59.0; 3.718; 55418; 
-4.6001; 7.3451; -4.4245; -1.5092; -0.9401; -0.5319; 11.2225; 26.05; -29.77; 22.18; 0.29; -51.2; 130.3; 53.158; 59.936813; 10.509692; 253.2; 2.2518; 15.0; 27.0; 59.0; 3.718; 55518; 
-3.0721; 6.5186; 0.5532; -0.4008; 0.3709; 0.1386; 11.2225; 26.05; -29.77; 22.18; 0.29; -51.2; 130.3; 53.158; 59.936813; 10.509692; 253.2; 2.2518; 15.0; 27.0; 59.0; 3.718; 55631; 
-3.0721; 6.5186; 0.5532; -0.4008; 0.3709; 0.1386; 7.803; 27.75; -33.37; 14.86; 0.29; -51.2; 130.3; 53.158; 59.936813; 10.509692; 253.2; 2.2518; 15.0; 27.0; 59.0; 3.718; 55732; 
-0.5661; 6.103; -0.3771; 1.3014; 1.4027; 0.632; 7.803; 27.75; -33.37; 14.86; 0.29; -51.2; 130.3; 72.158; 59.936813; 10.509692; 253.2; 2.2518; 15.0; 27.0; 59.0; 3.718; 55839; 
-0.5661; 6.103; -0.3771; 1.3014; 1.4027; 0.632; 7.803; 22.05; -18.36; 33.76; 292.07; -56.09; 98.71; 72.158; 59.936813; 10.509692; 253.2; 2.2518; 15.0; 27.0; 59.0; 3.718; 55949; 
-7.4828; 11.3731; -7.3424; 1.3739; -0.0426; 0.9827; 4.4451; 22.05; -18.36; 33.76; 292.07; -56.09; 98.71; 72.158; 59.936813; 10.509692; 253.2; 2.2518; 15.0; 27.0; 59.0; 3.718; 56049; 
-7.4828; 11.3731; -7.3424; 1.3739; -0.0426; 0.9827; 4.4451; 22.05; -18.36; 33.76; 292.07; -56.09; 98.71; 72.158; 59.936813; 10.509692; 253.2; 2.2518; 15.0; 27.0; 59.0; 3.718; 56149; 
-5.4785; 8.7334; -7.6853; -1.6286; -0.4924; -0.2878; 4.192; 21.75; -18.36; 34.98; 292.07; -56.09; 98.71; 64.711; 59.936813; 10.509692; 253.2; 2.2518; 15.0; 27.0; 59.0; 3.718; 56265; 
-5.4785; 8.7334; -7.6853; -1.6286; -0.4924; -0.2878; 4.192; 21.75; -18.36; 34.98; 292.07; -56.09; 98.71; 64.711; 59.936813; 10.509692; 253.2; 2.2518; 15.0; 27.0; 59.0; 3.718; 56365; 
-4.3149; 6.3398; -4.2185; -1.1788; -0.7067; -0.2004; 4.192; 24.35; -28.76; 26.24; 90.45; -39.77; 147.99; 64.711; 59.936813; 10.509692; 253.2; 2.2518; 15.0; 27.0; 59.0; 3.718; 56484; 
-4.3149; 6.3398; -4.2185; -1.1788; -0.7067; -0.2004; 4.192; 24.35; -28.76; 26.24; 90.45; -39.77; 147.99; 56.887; 59.936813; 10.509692; 253.2; 2.2518; 15.0; 27.0; 59.0; 3.718; 56585; 
-5.2193; 7.7368; -1.7518; -0.4445; -0.1812; -0.0895; 4.192; 24.35; -28.76; 26.24; 90.45; -39.77; 147.99; 56.887; 59.936813; 10.509692; 253.2; 2.2518; 15.0; 27.0; 59.0; 3.718; 56685; 
-5.2193; 7.7368; -1.7518; -0.4445; -0.1812; -0.0895; 4.192; 26.75; -34.07; 17.71; 90.45; -39.77; 147.99; 56.887; 59.936813; 10.509692; 253.2; 2.2518; 15.0; 27.0; 59.0; 3.718; 56785; 
-4.8305; 6.5796; -0.9385; 0.1343; -0.0309; -0.0671; 4.192; 26.75; -34.07; 17.71; 90.45; -39.77; 147.99; 53.643; 59.936813; 10.509692; 253.2; 2.2518; 15.0; 27.0; 59.0; 3.718; 56885; 
-4.8305; 6.5796; -0.9385; 0.1343; -0.0309; -0.0671; 4.192; 26.75; -34.07; 17.71; 90.45; -39.77; 147.99; 53.643; 59.936813; 10.509692; 253.2; 2.2518; 15.0; 27.0; 59.0; 3.718; 56985; 
-5.4579; 8.8406; -1.9864; -0.2579; 0.0554; -0.033; 4.192; 27.25; -33.37; 18.93; 319.08; -56.45; 112.13; 53.643; 59.936813; 10.509692; 253.2; 2.2518; 15.0; 27.0; 59.0; 3.718; 57089; 
-5.4579; 8.8406; -1.9864; -0.2579; 0.0554; -0.033; 4.192; 27.25; -33.37; 18.93; 319.08; -56.45; 112.13; 53.643; 59.936813; 10.509692; 253.2; 2.2518; 15.0; 27.0; 59.0; 3.718; 57189; 
-3.6614; 7.8404; 0.5283; -0.4594; 0.5393; -0.0437; 4.192; 26.35; -35.27; 16.29; 319.08; -56.45; 112.13; 51.734; 59.936813; 10.509692; 253.2; 2.2518; 15.0; 27.0; 59.0; 3.718; 57316; 
-3.6614; 7.8404; 0.5283; -0.4594; 0.5393; -0.0437; 4.192; 26.35; -35.27; 16.29; 319.08; -56.45; 112.13; 51.734; 59.936813; 10.509692; 253.2; 2.2518; 15.0; 27.0; 59.0; 3.718; 57416; 
-2.7797; 7.3834; 0.8192; 0.7472; 0.145; 0.1823; 4.192; 26.35; -35.27; 16.29; 319.08; -56.45; 112.13; 51.734; 59.936813; 10.509692; 253.2; 2.2518; 15.0; 27.0; 59.0; 3.718; 57530; 
-2.7797; 7.3834; 0.8192; 0.7472; 0.145; 0.1823; 4.1432; 22.95; -32.37; 24.01; 292.59; -59.17; 103.21; 67.061; 59.936813; 10.509692; 253.2; 2.2518; 15.0; 27.0; 59.0; 3.718; 57630; 
-6.8638; 9.8783; -7.0191; 0.9006; -0.0139; -0.3176; 4.1432; 22.95; -32.37; 24.01; 292.59; -59.17; 103.21; 67.061; 59.936813; 10.509692; 253.2; 2.2518; 15.0; 27.0; 59.0; 3.718; 57733; 
-6.8638; 9.8783; -7.0191; 0.9006; -0.0139; -0.3176; 4.1432; 23.65; -22.86; 32.95; 292.59; -59.17; 103.21; 67.061; 59.936813; 10.509692; 253.2; 2.2518; 15.0; 27.0; 59.0; 3.718; 57844; 
-5.6951; 8.3999; -5.321; -0.1727; -0.2537; 0.1386; 4.1432; 23.65; -22.86; 32.95; 292.59; -59.17; 103.21; 57.015; 59.936813; 10.509692; 253.2; 2.2518; 15.0; 27.0; 59.0; 3.718; 57945; 
-5.6951; 8.3999; -5.321; -0.1727; -0.2537; 0.1386; 4.1432; 23.65; -22.86; 32.95; 292.59; -59.17; 103.21; 57.015; 59.936813; 10.509692; 253.2; 2.2518; 15.0; 27.0; 59.0; 3.718; 58045; 
-6.8037; 8.17; -4.1461; -1.2279; -1.085; -0.0554; 4.1432; 24.85; -30.97; 25.94; 342.5; -47.29; 133.39; 57.015; 59.936813; 10.509692; 253.2; 2.2518; 15.0; 27.0; 59.0; 3.718; 58169; 
-6.8037; 8.17; -4.1461; -1.2279; -1.085; -0.0554; 4.1432; 24.85; -30.97; 25.94; 342.5; -47.29; 133.39; 57.015; 59.936813; 10.509692; 253.2; 2.2518; 15.0; 27.0; 59.0; 3.718; 58269; 
-5.3562; 7.9242; -2.3039; -1.2492; -0.3134; -0.2142; 4.1432; 24.85; -30.97; 25.94; 342.5; -47.29; 133.39; 56.297; 59.936813; 10.509692; 253.2; 2.2518; 15.0; 27.0; 59.0; 3.718; 58369; 
-5.3562; 7.9242; -2.3039; -1.2492; -0.3134; -0.2142; 4.3933; 28.55; -35.67; 12.83; 342.5; -47.29; 133.39; 56.297; 59.936813; 10.509692; 253.2; 2.2518; 15.0; 27.0; 59.0; 3.718; 58469; 
-4.9089; 6.2446; 1.0379; -0.7845; -0.3613; -0.2014; 4.3933; 28.55; -35.67; 12.83; 342.5; -47.29; 133.39; 56.297; 59.936813; 10.509692; 253.2; 2.2518; 15.0; 27.0; 59.0; 3.718; 58569; 
-4.9089; 6.2446; 1.0379; -0.7845; -0.3613; -0.2014; 4.3933; 28.55; -35.67; 12.83; 342.5; -47.29; 133.39; 57.394; 59.936813; 10.509692; 253.2; 2.2518; 15.0; 27.0; 59.0; 3.718; 58669; 
-5.5885; 6.8727; 2.6866; 0.0959; 0.3187; 0.0096; 5.2379; 32.25; -36.47; 1.25; 35.78; -55.71; 99.47; 57.394; 59.936813; 10.509692; 253.2; 2.2518; 15.0; 27.0; 59.0; 3.718; 58795; 
-5.5885; 6.8727; 2.6866; 0.0959; 0.3187; 0.0096; 5.2379; 32.25; -36.47; 1.25; 35.78; -55.71; 99.47; 57.394; 59.936905; 10.509848; 253.2; 3.69045; 15.0; 27.0; 59.0; 3.718; 58895; 
-5.8903; 7.093; 1.7741; 0.2142; -0.0458; 0.1545; 5.2379; 31.45; -36.97; 2.88; 35.78; -55.71; 99.47; 57.644; 59.936905; 10.509848; 253.2; 3.69045; 15.0; 27.0; 59.0; 3.718; 58999; 
-5.8903; 7.093; 1.7741; 0.2142; -0.0458; 0.1545; 5.2379; 31.45; -36.97; 2.88; 35.78; -55.71; 99.47; 57.644; 59.936905; 10.509848; 253.2; 3.69045; 15.0; 27.0; 59.0; 3.718; 59120; 
-3.3464; 5.3862; 1.1981; 1.6915; 1.2897; 0.3187; 5.2379; 31.45; -36.97; 2.88; 35.78; -55.71; 99.47; 57.644; 59.936905; 10.509848; 253.2; 3.69045; 15.0; 27.0; 59.0; 3.718; 59221; 
-3.3464; 5.3862; 1.1981; 1.6915; 1.2897; 0.3187; 5.2379; 25.05; -33.17; 22.79; 275.74; -56.03; 90.04; 57.644; 59.936905; 10.509848; 253.2; 3.69045; 15.0; 27.0; 59.0; 3.718; 59321; 
-8.5318; 12.3784; -8.0696; 0.5788; 1.2449; 0.858; 4.192; 25.05; -33.17; 22.79; 275.74; -56.03; 90.04; 67.756; 59.936905; 10.509848; 253.2; 3.69045; 15.0; 27.0; 59.0; 3.718; 59452; 
-8.5318; 12.3784; -8.0696; 0.5788; 1.2449; 0.858; 4.192; 17.05; -27.86; 33.46; 275.74; -56.03; 90.04; 67.756; 59.936905; 10.509848; 253.2; 3.69045; 15.0; 27.0; 59.0; 3.718; 59580; 
-5.1638; 8.6484; -5.747; -0.4946; -0.3965; -0.1226; 4.192; 17.05; -27.86; 33.46; 275.74; -56.03; 90.04; 67.756; 59.936905; 10.509848; 253.2; 3.69045; 15.0; 27.0; 59.0; 3.718; 59700; 
-4.7623; 7.6139; -2.3965; -0.1833; -0.2569; 0.0799; 4.192; 22.65; -31.57; 26.24; 345.39; -51.91; 135.26; 61.23; 59.936905; 10.509848; 253.2; 3.69045; 15.0; 27.0; 59.0; 3.718; 59838; 
-4.7623; 7.6139; -2.3965; -0.1833; -0.2569; 0.0799; 4.192; 22.65; -31.57; 26.24; 345.39; -51.91; 135.26; 61.23; 59.936905; 10.509848; 253.2; 3.69045; 15.0; 27.0; 59.0; 3.718; 59939; 
-5.8557; 7.8765; -3.3202; -0.0746; -0.6129; -0.0437; 4.192; 22.65; -31.57; 26.24; 345.39; -51.91; 135.26; 61.23; 59.936905; 10.509848; 253.2; 3.69045; 15.0; 27.0; 59.0; 3.718; 60047; 
-5.8557; 7.8765; -3.3202; -0.0746; -0.6129; -0.0437; 4.192; 25.45; -32.47; 22.99; 345.39; -51.91; 135.26; 54.772; 59.936905; 10.509848; 253.2; 3.69045; 15.0; 27.0; 59.0; 3.718; 60147; 
-5.397; 6.6932; -1.7431; -0.3198; 0.049; -0.0426; 4.192; 25.45; -32.47; 22.99; 345.39; -51.91; 135.26; 54.772; 59.936905; 10.509848; 253.2; 3.69045; 15.0; 27.0; 59.0; 3.718; 60260; 
-5.397; 6.6932; -1.7431; -0.3198; 0.049; -0.0426; 4.192; 26.85; -33.17; 20.15; 324.48; -53.85; 117.57; 54.772; 59.936905; 10.509848; 253.2; 3.69045; 15.0; 27.0; 59.0; 3.718; 60383; 
-5.8313; 6.7686; -1.6211; 0.3048; -0.1418; -0.0565; 4.192; 26.85; -33.17; 20.15; 324.48; -53.85; 117.57; 54.513; 59.936905; 10.509848; 253.2; 3.69045; 15.0; 27.0; 59.0; 3.718; 60483; 
-5.8313; 6.7686; -1.6211; 0.3048; -0.1418; -0.0565; 4.192; 26.85; -33.17; 20.15; 324.48; -53.85; 117.57; 54.513; 59.936905; 10.509848; 253.2; 3.69045; 15.0; 27.0; 59.0; 3.718; 60583; 
-6.1848; 6.984; -2.1549; 0.4839; 0.0618; 0.0011; 4.192; 26.75; -31.67; 22.48; 324.48; -53.85; 117.57; 54.513; 59.936905; 10.509848; 253.2; 3.69045; 15.0; 27.0; 59.0; 3.718; 60690; 
-6.1848; 6.984; -2.1549; 0.4839; 0.0618; 0.0011; 4.192; 26.75; -31.67; 22.48; 324.48; -53.85; 117.57; 55.9; 59.936905; 10.509848; 253.2; 3.69045; 15.0; 27.0; 59.0; 3.718; 60790; 
-5.822; 7.5558; -2.9102; 0.243; -0.1236; 0.1887; 4.192; 26.75; -31.67; 22.48; 324.48; -53.85; 117.57; 55.9; 59.936905; 10.509848; 253.2; 3.69045; 15.0; 27.0; 59.0; 3.718; 60903; 
-5.822; 7.5558; -2.9102; 0.243; -0.1236; 0.1887; 4.192; 26.95; -30.57; 23.09; 309.35; -50.95; 116.15; 55.9; 59.936905; 10.509848; 253.2; 3.69045; 15.0; 27.0; 59.0; 3.718; 61004; 
-5.4223; 6.9599; -2.9737; 0.3272; -0.1919; 0.1727; 4.192; 26.95; -30.57; 23.09; 309.35; -50.95; 116.15; 55.9; 59.936905; 10.509848; 253.2; 3.69045; 15.0; 27.0; 59.0; 3.718; 61109; 
-5.4223; 6.9599; -2.9737; 0.3272; -0.1919; 0.1727; 4.192; 26.95; -30.57; 23.5; 309.35; -50.95; 116.15; 55.842; 59.936905; 10.509848; 253.2; 3.69045; 15.0; 27.0; 59.0; 3.718; 61214; 
-5.8353; 7.2505; -3.0102; 0.1663; -0.2345; 0.1162; 4.192; 26.95; -30.57; 23.5; 309.35; -50.95; 116.15; 55.842; 59.936905; 10.509848; 253.2; 3.69045; 15.0; 27.0; 59.0; 3.718; 61314; 
-5.8353; 7.2505; -3.0102; 0.1663; -0.2345; 0.1162; 4.192; 26.95; -30.57; 23.5; 309.35; -50.95; 116.15; 55.842; 59.936905; 10.509848; 253.2; 3.69045; 15.0; 27.0; 59.0; 3.718; 61414; 
-4.8806; 7.601; -2.8553; 0.0405; -0.0757; 0.1727; 4.192; 27.65; -30.87; 22.79; 322.34; -50.99; 119.33; 56.997; 59.936905; 10.509848; 253.2; 3.69045; 15.0; 27.0; 59.0; 3.718; 61552; 
-4.8806; 7.601; -2.8553; 0.0405; -0.0757; 0.1727; 4.192; 27.65; -30.87; 22.79; 322.34; -50.99; 119.33; 56.997; 59.936905; 10.509848; 253.2; 3.69045; 15.0; 27.0; 59.0; 3.718; 61652; 
-5.1828; 7.0708; -2.4666; 0.1577; -0.2761; 0.065; 4.5505; 27.65; -30.87; 22.79; 322.34; -50.99; 119.33; 56.997; 59.936905; 10.509848; 253.2; 3.69045; 15.0; 27.0; 59.0; 3.718; 61754; 
-5.1828; 7.0708; -2.4666; 0.1577; -0.2761; 0.065; 4.5505; 28.55; -30.37; 20.86; 322.34; -50.99; 119.33; 56.997; 59.937008; 10.509907; 253.2; 3.753; 15.0; 27.0; 59.0; 3.718; 61854; 
-5.7085; 6.887; -2.7173; 0.2814; -0.097; 0.097; 4.5505; 28.55; -30.37; 20.86; 322.34; -50.99; 119.33; 58.202; 59.937008; 10.509907; 253.2; 3.753; 15.0; 27.0; 59.0; 3.718; 61954; 
-5.7085; 6.887; -2.7173; 0.2814; -0.097; 0.097; 6.7; 28.45; -29.06; 23.3; 327.21; -52.31; 118.7; 58.202; 59.937008; 10.509907; 253.2; 3.753; 15.0; 27.0; 59.0; 3.718; 62073; 
-6.1365; 6.9839; -3.133; 0.2515; 0.032; 0.0597; 6.7; 28.45; -29.06; 23.3; 327.21; -52.31; 118.7; 58.202; 59.937008; 10.509907; 253.2; 3.753; 15.0; 27.0; 59.0; 3.718; 62173; 
-6.1365; 6.9839; -3.133; 0.2515; 0.032; 0.0597; 10.8347; 28.45; -29.06; 23.3; 327.21; -52.31; 118.7; 59.352; 59.937008; 10.509907; 253.2; 3.753; 15.0; 27.0; 59.0; 3.718; 62273; 
-5.8991; 6.8545; -2.8713; 0.2292; 0.0426; 0.1982; 10.8347; 27.95; -28.26; 24.82; 327.21; -52.31; 118.7; 59.352; 59.937008; 10.509907; 253.2; 3.753; 15.0; 27.0; 59.0; 3.718; 62381; 
-5.8991; 6.8545; -2.8713; 0.2292; 0.0426; 0.1982; 10.8347; 27.95; -28.26; 24.82; 327.21; -52.31; 118.7; 59.352; 59.937008; 10.509907; 253.2; 3.753; 15.0; 27.0; 59.0; 3.718; 62481; 
-5.1319; 7.0203; -2.9891; 0.227; -0.0277; 0.1865; 14.5243; 27.95; -28.26; 24.82; 327.21; -52.31; 118.7; 58.598; 59.937008; 10.509907; 253.2; 3.753; 15.0; 27.0; 59.0; 3.718; 62581; 
-5.1319; 7.0203; -2.9891; 0.227; -0.0277; 0.1865; 14.5243; 26.75; -28.36; 25.23; 333.76; -49.31; 125.54; 58.598; 59.937008; 10.509907; 253.2; 3.753; 15.0; 27.0; 59.0; 3.718; 62681; 
-4.5648; 7.5731; -3.0004; 0.2803; -0.1695; 0.2238; 16.3308; 26.75; -28.36; 25.23; 333.76; -49.31; 125.54; 58.598; 59.937008; 10.509907; 253.2; 3.753; 15.0; 27.0; 59.0; 3.718; 62787; 
-4.5648; 7.5731; -3.0004; 0.2803; -0.1695; 0.2238; 16.3308; 25.85; -28.26; 26.04; 333.76; -49.31; 125.54; 58.598; 59.937008; 10.509907; 253.2; 3.753; 15.0; 27.0; 59.0; 3.718; 62888; 
-5.1491; 7.4811; -4.2482; 0.1673; 0.097; 0.0565; 16.3308; 25.85; -28.26; 26.04; 333.76; -49.31; 125.54; 59.527; 59.937008; 10.509907; 253.2; 3.753; 15.0; 27.0; 59.0; 3.718; 62992; 
-5.1491; 7.4811; -4.2482; 0.1673; 0.097; 0.0565; 4.9397; 25.85; -28.26; 26.04; 333.76; -49.31; 125.54; 59.527; 59.937008; 10.509907; 253.2; 3.753; 15.0; 27.0; 59.0; 3.718; 63092; 
-5.7376; 8.0893; -3.5612; 0.1119; -0.1428; 0.1204; 4.9397; 25.55; -28.06; 27.26; 345.67; -50.17; 131.87; 59.527; 59.937008; 10.509907; 253.2; 3.753; 15.0; 27.0; 59.0; 3.718; 63200; 
-5.7376; 8.0893; -3.5612; 0.1119; -0.1428; 0.1204; 5.5541; 25.55; -28.06; 27.26; 345.67; -50.17; 131.87; 59.583; 59.937008; 10.509907; 253.2; 3.753; 15.0; 27.0; 59.0; 3.718; 63329; 
-6.0729; 3.9581; -5.0854; 0.9124; -0.3603; 0.3997; 5.5541; 27.35; -25.56; 27.06; 345.67; -50.17; 131.87; 59.583; 59.937008; 10.509907; 253.2; 3.753; 15.0; 27.0; 59.0; 3.718; 63430; 
-6.0729; 3.9581; -5.0854; 0.9124; -0.3603; 0.3997; 5.5541; 27.35; -25.56; 27.06; 345.67; -50.17; 131.87; 59.583; 59.937008; 10.509907; 253.2; 3.753; 15.0; 27.0; 59.0; 3.718; 63535; 
-7.9491; 8.564; -4.3829; -0.745; -0.5585; 0.0917; 5.7529; 27.35; -25.56; 27.06; 345.67; -50.17; 131.87; 65.927; 59.937008; 10.509907; 253.2; 3.753; 15.0; 27.0; 59.0; 3.718; 63635; 
-7.9491; 8.564; -4.3829; -0.745; -0.5585; 0.0917; 5.7529; 29.55; -27.96; 20.76; 34.86; -45.64; 132.0; 65.927; 59.937008; 10.509907; 253.2; 3.753; 15.0; 27.0; 59.0; 3.718; 63735; 
-6.5086; 7.9652; -1.0763; -0.1556; -0.5766; -0.162; 5.0569; 29.55; -27.96; 20.76; 34.86; -45.64; 132.0; 65.927; 59.937008; 10.509907; 253.2; 3.753; 15.0; 27.0; 59.0; 3.718; 63840; 
-6.5086; 7.9652; -1.0763; -0.1556; -0.5766; -0.162; 5.0569; 34.05; -27.06; 16.9; 34.86; -45.64; 132.0; 65.927; 59.937008; 10.509907; 253.2; 3.753; 15.0; 27.0; 59.0; 3.718; 63958; 
-6.2522; 6.1314; -4.2527; 1.0808; 0.1514; -0.0533; 5.0569; 34.05; -27.06; 16.9; 34.86; -45.64; 132.0; 60.103; 59.937008; 10.509907; 253.2; 3.753; 15.0; 27.0; 59.0; 3.718; 64059; 
-6.2522; 6.1314; -4.2527; 1.0808; 0.1514; -0.0533; 5.0569; 34.05; -27.06; 16.9; 34.86; -45.64; 132.0; 60.103; 59.937008; 10.509907; 253.2; 3.753; 15.0; 27.0; 59.0; 3.718; 64160; 
-6.3194; 8.0485; -3.0348; -0.5383; -0.0245; 0.4381; 5.0569; 33.65; -27.96; 18.01; 0.25; -52.35; 117.98; 60.103; 59.937008; 10.509907; 253.2; 3.753; 15.0; 27.0; 59.0; 3.718; 64266; 
-6.3194; 8.0485; -3.0348; -0.5383; -0.0245; 0.4381; 5.1165; 33.65; -27.96; 18.01; 0.25; -52.35; 117.98; 58.834; 59.937008; 10.509907; 253.2; 3.753; 15.0; 27.0; 59.0; 3.718; 64366; 
-4.7603; 7.632; -1.6195; 0.2473; 0.1151; -0.1055; 5.1165; 33.65; -27.96; 18.01; 0.25; -52.35; 117.98; 58.834; 59.937008; 10.509907; 253.2; 3.753; 15.0; 27.0; 59.0; 3.718; 64482; 
-4.7603; 7.632; -1.6195; 0.2473; 0.1151; -0.1055; 5.0569; 34.75; -27.96; 17.91; 0.25; -52.35; 117.98; 58.834; 59.937008; 10.509907; 253.2; 3.753; 15.0; 27.0; 59.0; 3.718; 64583; 
-6.1034; 7.8893; -3.668; 0.3464; -0.1823; 0.081; 5.0569; 34.75; -27.96; 17.91; 0.25; -52.35; 117.98; 58.71; 59.937008; 10.509907; 253.2; 3.753; 15.0; 27.0; 59.0; 3.718; 64684; 
-6.1034; 7.8893; -3.668; 0.3464; -0.1823; 0.081; 5.0569; 33.65; -26.76; 18.32; 9.75; -48.17; 120.62; 58.71; 59.937096; 10.510044; 253.0; 5.3793; 15.0; 27.0; 59.0; 3.718; 64796; 
-5.0493; 7.6013; -3.7903; -0.2281; 0.1066; 0.0981; 5.0569; 33.65; -26.76; 18.32; 9.75; -48.17; 120.62; 58.71; 59.937096; 10.510044; 253.0; 5.3793; 15.0; 27.0; 59.0; 3.718; 64926; 
-5.0493; 7.6013; -3.7903; -0.2281; 0.1066; 0.0981; 5.0569; 33.65; -26.76; 18.32; 9.75; -48.17; 120.62; 60.272; 59.937096; 10.510044; 253.0; 5.3793; 15.0; 27.0; 59.0; 3.718; 65029; 
-5.8329; 8.5094; -2.9849; -0.0586; -0.3038; 0.0959; 5.5541; 33.75; -29.16; 14.46; 9.75; -48.17; 120.62; 60.272; 59.937096; 10.510044; 253.0; 5.3793; 15.0; 27.0; 59.0; 3.718; 65176; 
-5.2837; 8.4848; -3.2762; 0.0341; -0.2547; -0.0224; 5.5541; 33.75; -29.16; 14.46; 9.75; -48.17; 120.62; 60.272; 59.937096; 10.510044; 253.0; 5.3793; 15.0; 27.0; 59.0; 3.718; 65287; 
-5.2837; 8.4848; -3.2762; 0.0341; -0.2547; -0.0224; 5.5541; 34.95; -29.57; 10.8; 29.66; -52.31; 116.66; 61.276; 59.937096; 10.510044; 253.0; 5.3793; 15.0; 27.0; 59.0; 3.718; 65405; 
-6.383; 9.0831; -2.5205; -0.2771; -0.5574; -0.0426; 7.1882; 34.95; -29.57; 10.8; 29.66; -52.31; 116.66; 61.276; 59.937096; 10.510044; 253.0; 5.3793; 15.0; 27.0; 59.0; 3.718; 65518; 
-6.383; 9.0831; -2.5205; -0.2771; -0.5574; -0.0426; 7.1882; 37.05; -29.47; 3.99; 29.66; -52.31; 116.66; 61.276; 59.937096; 10.510044; 253.0; 5.3793; 15.0; 27.0; 59.0; 3.718; 65623; 
-5.2476; 7.1921; -1.3671; -0.3144; -0.2004; -0.0938; 8.9816; 37.05; -29.47; 3.99; 29.66; -52.31; 116.66; 61.276; 59.937096; 10.510044; 253.0; 5.3793; 15.0; 27.0; 59.0; 3.718; 65732; 
-5.2476; 7.1921; -1.3671; -0.3144; -0.2004; -0.0938; 8.9816; 37.05; -29.47; 3.99; 29.66; -52.31; 116.66; 60.407; 59.937096; 10.510044; 253.0; 5.3793; 15.0; 27.0; 59.0; 3.718; 65832; 
-5.8183; 6.9125; -1.1737; 0.2654; 0.2995; 0.0128; 8.9816; 37.35; -28.46; 2.57; 32.77; -53.19; 106.91; 60.407; 59.937096; 10.510044; 253.0; 5.3793; 15.0; 27.0; 59.0; 3.718; 65958; 
-5.8183; 6.9125; -1.1737; 0.2654; 0.2995; 0.0128; 8.1776; 37.35; -28.46; 2.57; 32.77; -53.19; 106.91; 60.407; 59.937096; 10.510044; 253.0; 5.3793; 15.0; 27.0; 59.0; 3.718; 66058; 
-5.1565; 8.4109; -2.4473; 0.0437; 0.389; 0.1919; 8.1776; 37.35; -28.46; 2.57; 32.77; -53.19; 106.91; 58.093; 59.937096; 10.510044; 253.0; 5.3793; 15.0; 27.0; 59.0; 3.718; 66159; 
-5.1565; 8.4109; -2.4473; 0.0437; 0.389; 0.1919; 8.1776; 35.85; -29.97; 8.97; 32.77; -53.19; 106.91; 58.093; 59.937096; 10.510044; 253.0; 5.3793; 15.0; 27.0; 59.0; 3.718; 66259; 
-5.0462; 7.3594; -2.3796; 0.2569; -0.2793; 0.064; 6.9398; 35.85; -29.97; 8.97; 32.77; -53.19; 106.91; 58.093; 59.937096; 10.510044; 253.0; 5.3793; 15.0; 27.0; 59.0; 3.718; 66359; 
-5.0462; 7.3594; -2.3796; 0.2569; -0.2793; 0.064; 6.9398; 35.85; -29.97; 8.97; 32.77; -53.19; 106.91; 62.971; 59.937096; 10.510044; 253.0; 5.3793; 15.0; 27.0; 59.0; 3.718; 66459; 
-5.6238; 8.0702; -2.77; 0.1897; -0.47; 0.0213; 6.9398; 36.25; -29.57; 7.96; 23.75; -54.55; 110.98; 62.971; 59.937096; 10.510044; 253.0; 5.3793; 15.0; 27.0; 59.0; 3.718; 66594; 
-5.6238; 8.0702; -2.77; 0.1897; -0.47; 0.0213; 7.803; 36.25; -29.57; 7.96; 23.75; -54.55; 110.98; 62.971; 59.937096; 10.510044; 253.0; 5.3793; 15.0; 27.0; 59.0; 3.718; 66694; 
-4.5657; 7.6563; -2.2031; 0.0128; 0.1386; 0.0544; 7.803; 36.55; -29.26; 6.13; 23.75; -54.55; 110.98; 61.018; 59.937096; 10.510044; 253.0; 5.3793; 15.0; 27.0; 59.0; 3.718; 66795; 
-4.5657; 7.6563; -2.2031; 0.0128; 0.1386; 0.0544; 7.803; 36.55; -29.26; 6.13; 23.75; -54.55; 110.98; 61.018; 59.937096; 10.510044; 253.0; 5.3793; 15.0; 27.0; 59.0; 3.718; 66895; 
-5.6431; 8.3287; -2.1699; 0.0043; -0.3826; -0.0863; 8.1776; 36.55; -29.26; 6.13; 23.75; -54.55; 110.98; 61.018; 59.937096; 10.510044; 253.0; 5.3793; 15.0; 27.0; 59.0; 3.718; 66995; 
-5.6431; 8.3287; -2.1699; 0.0043; -0.3826; -0.0863; 8.1776; 37.85; -27.96; 2.17; 44.69; -53.87; 112.04; 61.018; 59.937096; 10.510044; 253.0; 5.3793; 15.0; 27.0; 59.0; 3.718; 67095; 
-5.5082; 6.8894; -1.7618; -0.0448; -0.1961; -0.2483; 8.1776; 37.85; -27.96; 2.17; 44.69; -53.87; 112.04; 61.045; 59.937096; 10.510044; 253.0; 5.3793; 15.0; 27.0; 59.0; 3.718; 67196; 
-5.5082; 6.8894; -1.7618; -0.0448; -0.1961; -0.2483; 11.7613; 37.85; -27.96; 2.17; 44.69; -53.87; 112.04; 61.045; 59.937096; 10.510044; 253.0; 5.3793; 15.0; 27.0; 59.0; 3.718; 67297; 
-6.5758; 6.8237; -1.718; 0.2068; -0.1482; -0.0682; 11.7613; 40.45; -23.96; 0.84; 44.69; -53.87; 112.04; 61.045; 59.937096; 10.510044; 253.0; 5.3793; 15.0; 27.0; 59.0; 3.718; 67410; 
-6.5758; 6.8237; -1.718; 0.2068; -0.1482; -0.0682; 11.7613; 40.45; -23.96; 0.84; 44.69; -53.87; 112.04; 54.777; 59.937096; 10.510044; 253.0; 5.3793; 15.0; 27.0; 59.0; 3.718; 67511; 
-6.4227; 7.3364; -1.712; 0.0405; 0.0181; 0.2142; 9.6361; 39.95; -23.86; 2.27; 27.94; -51.32; 104.78; 54.777; 59.937096; 10.510044; 253.0; 5.3793; 15.0; 27.0; 59.0; 3.718; 67623; 
-6.4227; 7.3364; -1.712; 0.0405; 0.0181; 0.2142; 9.6361; 39.95; -23.86; 2.27; 27.94; -51.32; 104.78; 54.777; 59.937096; 10.510044; 253.0; 5.3793; 15.0; 27.0; 59.0; 3.718; 67723; 
-6.0838; 6.9867; -1.4761; -0.0277; 0.1407; 0.2185; 10.4602; 39.95; -23.86; 2.27; 27.94; -51.32; 104.78; 54.777; 59.937176; 10.510219; 253.1; 3.69045; 15.0; 27.0; 59.0; 3.718; 67850; 
-6.0838; 6.9867; -1.4761; -0.0277; 0.1407; 0.2185; 10.4602; 38.05; -27.26; 1.45; 27.94; -51.32; 104.78; 53.25; 59.937176; 10.510219; 253.1; 3.69045; 15.0; 27.0; 59.0; 3.718; 67950; 
-6.3237; 6.7321; -1.894; 0.065; -0.0703; 0.1887; 10.4602; 38.05; -27.26; 1.45; 27.94; -51.32; 104.78; 53.25; 59.937176; 10.510219; 253.1; 3.69045; 15.0; 27.0; 59.0; 3.718; 68050; 
-6.3237; 6.7321; -1.894; 0.065; -0.0703; 0.1887; 9.8647; 36.65; -29.26; -0.17; 51.05; -51.52; 108.39; 53.25; 59.937176; 10.510219; 253.1; 3.69045; 15.0; 27.0; 59.0; 3.718; 68168; 
-8.7319; 9.133; -1.4716; -0.1556; -0.7333; 0.2867; 9.8647; 36.65; -29.26; -0.17; 51.05; -51.52; 108.39; 54.769; 59.937176; 10.510219; 253.1; 3.69045; 15.0; 27.0; 59.0; 3.718; 68268; 
-8.7319; 9.133; -1.4716; -0.1556; -0.7333; 0.2867; 12.7671; 36.65; -29.26; -0.17; 51.05; -51.52; 108.39; 54.769; 59.937176; 10.510219; 253.1; 3.69045; 15.0; 27.0; 59.0; 3.718; 68372; 
-4.0621; 8.244; -0.845; 0.0757; -0.1577; 0.1013; 12.7671; 33.85; -33.67; -2.71; 51.05; -51.52; 108.39; 54.769; 59.937176; 10.510219; 253.1; 3.69045; 15.0; 27.0; 59.0; 3.718; 68472; 
-4.0621; 8.244; -0.845; 0.0757; -0.1577; 0.1013; 12.7671; 33.85; -33.67; -2.71; 51.05; -51.52; 108.39; 55.652; 59.937176; 10.510219; 253.1; 3.69045; 15.0; 27.0; 59.0; 3.718; 68572; 
-3.7647; 7.7019; -0.9483; 0.3485; -0.291; -0.4658; 11.7613; 33.85; -33.67; -2.71; 51.05; -51.52; 108.39; 55.652; 59.937176; 10.510219; 253.1; 3.69045; 15.0; 27.0; 59.0; 3.718; 68675; 
-3.7647; 7.7019; -0.9483; 0.3485; -0.291; -0.4658; 11.7613; 37.75; -29.26; -4.03; 37.32; -58.9; 102.63; 55.652; 59.937176; 10.510219; 253.1; 3.69045; 15.0; 27.0; 59.0; 3.718; 68789; 
-6.2055; 8.2809; -1.976; 0.3091; 0.3432; 0.0512; 12.9176; 37.75; -29.26; -4.03; 37.32; -58.9; 102.63; 55.652; 59.937176; 10.510219; 253.1; 3.69045; 15.0; 27.0; 59.0; 3.718; 68894; 
-6.2055; 8.2809; -1.976; 0.3091; 0.3432; 0.0512; 12.9176; 38.15; -27.56; 0.95; 37.32; -58.9; 102.63; 59.449; 59.937176; 10.510219; 253.1; 3.69045; 15.0; 27.0; 59.0; 3.718; 68994; 
-5.4029; 6.8676; -3.0442; 0.6022; 0.4572; 0.0053; 12.9176; 38.15; -27.56; 0.95; 37.32; -58.9; 102.63; 59.449; 59.937176; 10.510219; 253.1; 3.69045; 15.0; 27.0; 59.0; 3.718; 69098; 
-5.4029; 6.8676; -3.0442; 0.6022; 0.4572; 0.0053; 10.3383; 37.35; -27.76; 5.21; 28.64; -50.4; 106.6; 59.449; 59.937176; 10.510219; 253.1; 3.69045; 15.0; 27.0; 59.0; 3.718; 69208; 
-7.2599; 6.9631; -4.0283; -0.1865; -0.7887; 0.1226; 10.3383; 37.35; -27.76; 5.21; 28.64; -50.4; 106.6; 59.739; 59.937176; 10.510219; 253.1; 3.69045; 15.0; 27.0; 59.0; 3.718; 69312; 
-7.2599; 6.9631; -4.0283; -0.1865; -0.7887; 0.1226; 10.3383; 37.35; -27.76; 5.21; 28.64; -50.4; 106.6; 59.739; 59.937176; 10.510219; 253.1; 3.69045; 15.0; 27.0; 59.0; 3.718; 69412; 
-5.9393; 6.7071; -1.8129; 0.145; -0.4146; 0.2324; 10.3383; 37.15; -30.27; -1.7; 28.64; -50.4; 106.6; 59.739; 59.937176; 10.510219; 253.1; 3.69045; 15.0; 27.0; 59.0; 3.718; 69527; 
-5.9393; 6.7071; -1.8129; 0.145; -0.4146; 0.2324; 7.803; 37.15; -30.27; -1.7; 28.64; -50.4; 106.6; 54.281; 59.937176; 10.510219; 253.1; 3.69045; 15.0; 27.0; 59.0; 3.718; 69627; 
-6.3258; 5.9822; -1.9045; 0.5777; -0.0693; 0.162; 7.803; 37.15; -30.27; -1.7; 28.64; -50.4; 106.6; 54.281; 59.937176; 10.510219; 253.1; 3.69045; 15.0; 27.0; 59.0; 3.718; 69728; 
-6.3258; 5.9822; -1.9045; 0.5777; -0.0693; 0.162; 7.803; 35.75; -30.67; -2.41; 69.98; -51.8; 114.08; 54.281; 59.937176; 10.510219; 253.1; 3.69045; 15.0; 27.0; 59.0; 3.718; 69831; 
-6.545; 10.3851; -3.6758; -0.5297; -0.1279; -0.2505; 7.803; 35.75; -30.67; -2.41; 69.98; -51.8; 114.08; 54.281; 59.937176; 10.510219; 253.1; 3.69045; 15.0; 27.0; 59.0; 3.718; 69933; 
-6.545; 10.3851; -3.6758; -0.5297; -0.1279; -0.2505; 7.1882; 35.75; -30.67; -2.41; 69.98; -51.8; 114.08; 56.547; 59.937176; 10.510219; 253.1; 3.69045; 15.0; 27.0; 59.0; 3.718; 70044; 
-4.5082; 6.8481; -1.0198; -0.5617; -0.0011; 0.146; 7.1882; 36.55; -28.96; -8.1; 69.98; -51.8; 114.08; 56.547; 59.937176; 10.510219; 253.1; 3.69045; 15.0; 27.0; 59.0; 3.718; 70173; 
-4.5082; 6.8481; -1.0198; -0.5617; -0.0011; 0.146; 7.1882; 36.55; -28.96; -8.1; 69.98; -51.8; 114.08; 56.547; 59.937176; 10.510219; 253.1; 3.69045; 15.0; 27.0; 59.0; 3.718; 70275; 
-2.5685; 3.6663; -0.344; 1.3035; 0.3603; -0.1311; 7.1882; 35.85; -29.67; -5.35; 49.4; -52.8; 99.74; 63.731; 59.937176; 10.510219; 253.1; 3.69045; 15.0; 27.0; 59.0; 3.718; 70403; 
-2.5685; 3.6663; -0.344; 1.3035; 0.3603; -0.1311; 5.3622; 35.85; -29.67; -5.35; 49.4; -52.8; 99.74; 63.731; 59.937176; 10.510219; 253.1; 3.69045; 15.0; 27.0; 59.0; 3.718; 70532; 
-5.8479; 8.1793; -7.578; 1.2769; 1.0978; -0.033; 5.3622; 35.15; -23.96; 14.86; 49.4; -52.8; 99.74; 63.731; 59.937176; 10.510219; 253.1; 3.69045; 15.0; 27.0; 59.0; 3.718; 70656; 
-7.1366; 10.559; -12.0579; -0.4242; -0.3922; 0.032; 5.3622; 35.15; -23.96; 14.86; 49.4; -52.8; 99.74; 65.006; 59.937176; 10.510219; 253.1; 3.69045; 15.0; 27.0; 59.0; 3.718; 70812; 
-7.1366; 10.559; -12.0579; -0.4242; -0.3922; 0.032; 6.5447; 32.15; -25.36; 18.72; 70.9; -40.36; 138.38; 65.006; 59.937176; 10.510219; 253.1; 3.69045; 15.0; 27.0; 59.0; 3.718; 70943; 
-3.9542; 7.86; -10.9475; -3.4491; -1.8823; -0.3826; 6.5447; 32.15; -25.36; 18.72; 70.9; -40.36; 138.38; 59.376; 59.937176; 10.510219; 253.1; 3.69045; 15.0; 27.0; 59.0; 3.718; 71043; 
